t,gx,gy,gz,ax,ay,az,temp
0.0,0.008365660495705318,-0.007455977748736694,0.004825496315387103,0.020634746742950287,0.10210178672829065,9.983701881595291,25.0
0.01,0.009128677659669456,-0.00873144926411537,0.00256760254245145,-0.014816794695866761,0.052024880555566894,10.014422109482139,25.000094247773408
0.02,0.008153408483800743,-0.006442739629281016,0.003981518726745283,0.004457333028685657,0.07479377366307852,9.969097230649114,25.000188495509605
0.03,0.006976347286911704,-0.00476884283519204,0.004855571128971843,0.013452410678896473,0.03709111935368167,10.00051651513422,25.00028274317139
0.04,0.00807923683707346,-0.004421862310244754,0.00451426027647725,0.052787208817686185,0.01872235135455174,9.996160241009939,25.000376990721552
0.05,0.006968849044540114,-0.0054837489022845015,0.002945229139088101,-0.03669257316931874,0.06215905328744962,10.03864665329248,25.00047123812288
0.06,0.009054140361568727,-0.006069896275380754,0.0037966514001002137,0.006636453565328091,0.05460510610660142,10.047612074529665,25.000565485338175
0.07,0.007182884546715271,-0.004288442125856358,0.003830017569724318,0.011461873043164336,0.08082099957673068,10.027991436379043,25.000659732330224
0.08,0.007486006613404272,-0.0064929869706835215,0.004585540104108683,-0.08474041212470283,0.05572642344261343,9.970604816995795,25.000753979061823
0.09,0.008438532877236895,-0.005422174343765617,0.004473903103308671,-0.023332706824705854,0.0991615610051082,9.993109422549676,25.000848225495762
0.1,0.010569977121044554,-0.006568981022938462,0.0034365329980213088,0.05832384587418023,0.01845787423241603,9.970425735031123,25.000942471594833
0.11,0.007023472726102547,-0.005137628808394306,0.005241869521992981,0.02441731982855911,0.048314747446761744,10.014937674771232,25.001036717321835
0.12,0.00786326305081415,-0.0071762190677475395,0.0030930706627396365,-0.0018224047910925046,0.05388101533695177,9.995367645800572,25.001130962639554
0.13,0.00878071134538964,-0.004959444160315181,0.0045974696951357145,0.006931600812232103,0.07583902205078126,10.056764708831118,25.00122520751079
0.14,0.0072013883512535674,-0.005674974147706593,0.004128354390054801,-0.004528576060284531,0.04685127772219547,9.988384430193307,25.00131945189833
0.15,0.008262426316074815,-0.0047799997108725345,0.00424595510365215,0.04564031565097496,0.07720224711918688,9.944334130353978,25.00141369576497
0.16,0.008814696275686274,-0.005905389302715552,0.004318031338558983,-0.05674682108389145,0.03463152937405359,10.012467854209739,25.00150793907351
0.17,0.008757545871006248,-0.008040018147797933,0.0036483616620069685,0.0005426958234392841,0.07228694945162305,9.999489009850134,25.001602181786737
0.18,0.007435552814848646,-0.006894428987540679,0.003697343523650648,0.043469363141368275,0.07949226860567243,10.0075856514277,25.00169642386745
0.19,0.009793929573481274,-0.00721216356197054,0.0050651061900506295,0.03590698291602316,0.011703775719173803,10.002380809194712,25.00179066527844
0.2,0.005980556274061034,-0.006468839041980085,0.004179028371615506,0.005672169183839558,0.07473017199867024,9.950217887909483,25.001884905982504
0.21,0.008703466797631135,-0.005004282788290003,0.004872681958719918,-0.006265407206234447,0.06908605229783008,10.020372388044713,25.001979145942435
0.22,0.007581529913301875,-0.006647292509730394,0.00494377346938287,0.037130695243626034,0.07919529930738885,10.003156126420093,25.002073385121033
0.23,0.0077704348101420625,-0.007785960852673091,0.0027533840645961715,0.021796012468462644,0.052234968204470274,10.00979996648841,25.002167623481093
0.24,0.006896657256798067,-0.005303974958324731,0.004156668309677622,0.025390870504420876,0.05660472779073479,10.016686869745017,25.002261860985406
0.25,0.008828582424881323,-0.006598153704871148,0.004174393660184386,0.03038606307951038,0.07781376610069346,10.044574299388202,25.002356097596774
0.26,0.008750708472760804,-0.006433085155608334,0.004502452761313153,0.07140024893858732,0.0775551276539944,9.990341838355047,25.00245033327799
0.27,0.007205688870720019,-0.0065082753851911,0.003580088316601838,0.01690149143459402,0.07100006566173167,10.024735542192332,25.002544567991855
0.28,0.006564992425293153,-0.005318238526900185,0.0034836574257770037,0.04639728741712115,0.010718027748447802,10.053546015722551,25.002638801701163
0.29,0.008014992942473225,-0.005326954677531728,0.004491184293632939,0.057059306041743384,0.07377912857156599,10.02405152259914,25.002733034368717
0.3,0.008798462130767343,-0.0061378796783131935,0.0035343718567514308,-0.005702544217784964,0.05805022171486773,10.02743766909274,25.00282726595731
0.31,0.007904338146912321,-0.008362268207541242,0.002408176280334604,0.020553371783109727,0.07805302244009484,10.025156594291303,25.002921496429746
0.32,0.006412760465174717,-0.007396145558642075,0.004439751649395781,0.028498499224271095,0.07989931275959812,9.972324042711675,25.003015725748817
0.33,0.0069134251335679275,-0.006529427575655146,0.0054291511275646725,0.0265148413052364,0.10991357525965434,10.004251143937426,25.00310995387733
0.34,0.007572483234726289,-0.004967478204146079,0.0029730205519891357,0.04653119843947432,0.03218888160247543,10.004150796172464,25.003204180778084
0.35,0.007753474930558844,-0.007330030876874814,0.0036270636165093816,-0.01768794455429575,0.09649134506786636,10.057598449741082,25.003298406413876
0.36,0.009008369764948874,-0.008418248592469289,0.004477866007900443,-0.001429083602626865,0.09066287263453181,10.057923252092905,25.00339263074751
0.37,0.008285282722798734,-0.006831809937975513,0.0024093363601727,0.0005592342611499188,0.06150619513031552,10.028578891828062,25.003486853741787
0.38,0.008086555409256643,-0.006741289792689323,0.004255943832490175,-0.023729339445608528,0.06095588266600769,10.07367238739846,25.00358107535951
0.39,0.008026222574628131,-0.0037575095521507184,0.0037367088097796735,-0.013453605607508901,0.08178028473978238,10.021864942276384,25.00367529556348
0.4,0.006771803008853762,-0.005749014111061158,0.004241996352368942,-0.0033661772610885637,0.06407949260146295,10.061187037585261,25.0037695143165
0.41,0.009631025090288525,-0.00483084425571959,0.004392558165064461,0.018154714397379028,0.07774807145131535,10.056330793480056,25.00386373158138
0.42,0.009755963469463474,-0.007664268276051991,0.003296273313975278,-0.007135513109945049,0.02855953252454032,10.061690316530887,25.003957947320917
0.43,0.00688810887031337,-0.006545733724418076,0.00248564523768806,0.005642453478552923,0.08289397380417236,9.98070866606018,25.004052161497917
0.44,0.008762181136177286,-0.006311111775938283,0.0023821130760470766,0.01320258915738495,0.02715903202386798,10.007142874871297,25.00414637407519
0.45,0.00678130510255095,-0.005561080613569727,0.0049219392246838195,-0.017890895555348386,0.03329882862244854,9.995403274580289,25.00424058501554
0.46,0.010396077070030143,-0.0019205925475897388,0.004455850376603596,-0.06725491928904619,0.025395881742229058,10.03014045300033,25.004334794281775
0.47,0.006812554255961763,-0.008984864793023833,0.00429448260857822,0.011976791686431811,0.027795915485046972,10.02263515422288,25.0044290018367
0.48,0.007024470685627609,-0.00658150016425156,0.003326693521034211,-0.02479959216455655,0.0780881383715757,10.00140274964922,25.00452320764313
0.49,0.007831050936300338,-0.004507627676897299,0.004172753424189879,-0.008206894511769812,0.05532336853563125,10.0870081106133,25.004617411663865
0.5,0.007809638195553574,-0.007449915253956136,0.002157848760825207,-0.021217245585670518,0.06421679265545858,10.030106998703754,25.00471161386172
0.51,0.007416430509112003,-0.006075295571145649,0.0059447229049378715,-0.027325585472668033,0.013233930552633881,9.98586805942521,25.004805814199504
0.52,0.008156329425767463,-0.004624164684567719,0.003450774841606933,0.024330696033266038,0.04829705335160806,9.997707810196447,25.00490001264003
0.53,0.006578067480299571,-0.007351163467125321,0.0032022513290106717,0.028869889538762395,0.03529554377414392,10.002263030043324,25.004994209146105
0.54,0.010554163678922198,-0.0071499413509141406,0.004922338124109979,-0.04386843123950456,0.06685328370032226,10.012447426386188,25.00508840368055
0.55,0.006916487386295569,-0.004695797781976058,0.004423446062716449,0.02541288894501653,0.025805978313201174,9.998962797415281,25.005182596206172
0.56,0.007812034522810291,-0.006057067536589608,0.0032797335350276706,-0.0368073108137456,0.05098216278763762,10.052520418414119,25.005276786685787
0.57,0.008535286641778496,-0.0066369768724770925,0.0026518336598560267,-0.008075782679219483,0.01962739492114269,9.983347063520805,25.005370975082208
0.58,0.006466474910816457,-0.005758376915189033,0.005737000382051479,-0.046781755002516336,0.021591509393397844,10.026574782319852,25.005465161358256
0.59,0.008191989936288125,-0.006166093656553836,0.004314408753562798,-0.0418416971208631,0.06661835052993656,10.005926965628241,25.005559345476744
0.6,0.00956720209004819,-0.0056928644980906015,0.0035479800460828893,-0.014399047472800023,0.06423894944161773,9.975098031700886,25.00565352740049
0.61,0.009327546452071867,-0.005399740986153741,0.005689331591195591,0.026772132024811393,0.03831962163997471,9.992739459564579,25.005747707092315
0.62,0.008219881324666287,-0.007714256644408701,0.0024950248808297687,-0.013613730161913211,0.07717840980341743,10.022525405232283,25.005841884515032
0.63,0.0099811135186775,-0.003586867990903384,0.003802528865389139,-0.077104234977714,0.064991952215789,9.94927622938158,25.00593605963147
0.64,0.007540175214636815,-0.003953977990860917,0.0027822497497521632,-0.008692851365674893,0.05484427739109238,9.99383733665498,25.00603023240444
0.65,0.006926327577253009,-0.005099342487435338,0.0035659343648544515,0.016571376662967496,0.0780352938502269,9.980352294629782,25.006124402796775
0.66,0.007993853759935915,-0.006228820057934317,0.004371332003678827,-0.022747110074919624,0.05686600249772951,9.955703773421883,25.006218570771292
0.67,0.009688978233576461,-0.005873181130337557,0.004708332672604544,-0.012762539255630359,0.09561932933484599,9.956901581913256,25.006312736290816
0.68,0.005539793478762774,-0.0060682057627021654,0.0030724467026778416,-0.00865672077940224,0.04128872723795672,10.069271772204408,25.006406899318172
0.69,0.006537424327491647,-0.007229413313700251,0.003632464215229107,-0.0145890362000896,0.044438445209962096,9.972118722310343,25.006501059816184
0.7,0.009099083050827215,-0.00785694980483539,0.004033694641853859,0.0018264541070175323,0.06543782754066324,9.976756964876172,25.00659521774768
0.71,0.0074189966799997065,-0.006458742332106746,0.005103033607835065,0.031208484021658957,0.06546293036007823,10.032363976600484,25.00668937307549
0.72,0.00864573852440471,-0.004127642649580159,0.0038300437528251095,-0.008297265835197578,0.06468231126495733,9.99828411216403,25.00678352576244
0.73,0.007164868865995156,-0.0063134023436327,0.004266746470398344,0.04527724648473448,0.06112854584638972,10.00538332634608,25.006877675771364
0.74,0.008211888030144453,-0.0075181433011267135,0.004099538759790662,-0.012200459970627426,0.0434261683467794,10.01271030639436,25.006971823065086
0.75,0.008273873996166687,-0.0024755363474525116,0.006064529072409838,0.026134423781181432,0.03870552325851752,10.009153736869635,25.007065967606447
0.76,0.006976107979329417,-0.006402336706168846,0.0023902137979792968,0.007071884730573448,0.06790732845851707,9.950463315140455,25.007160109358274
0.77,0.007291151583243816,-0.005558152994973523,0.005326438982977057,-0.026195180991329642,0.019629503436586766,10.006155501652854,25.007254248283402
0.78,0.00712509939470767,-0.006915805016094915,0.0016379820672874795,-0.02548240109670933,0.04397839868405105,9.966886223234852,25.00734838434467
0.79,0.007804800895346111,-0.007487380176603388,0.003417616629897319,-0.010550296115034077,0.02639824916587446,10.029356270145053,25.007442517504913
0.8,0.006947767066198894,-0.00613196757595358,0.0020664987695077058,0.015923639093867334,0.06207956988128186,9.99544105825022,25.007536647726965
0.81,0.006239545705530812,-0.003019054043160383,0.002583835160598566,-0.05958380298908175,0.0450433644861443,9.980736590602003,25.00763077497367
0.82,0.006683857305854433,-0.0034283210603501604,0.007195573886164448,0.008965026517965649,0.0752249507265224,10.015491445199778,25.007724899207865
0.83,0.00659412004540959,-0.006515548539503243,0.0043757111060345605,0.039437949273797644,0.041960351437217464,9.985590371797738,25.007819020392393
0.84,0.01007443717328671,-0.0073815999097995326,0.0037301943694636793,0.03268314686707731,0.06252720904706774,9.997199240302647,25.007913138490093
0.85,0.008932805091274093,-0.005391327495746734,0.003586228321646891,0.056942434346843464,0.07404960532671509,9.999005786434108,25.008007253463813
0.86,0.00783941244258075,-0.007924854131717975,0.0037380088816278685,-0.019031544409419,0.09501550480434831,10.011727104668468,25.008101365276396
0.87,0.007680335011989254,-0.005674962154523242,0.0033891400592990823,0.002282307586152812,0.07680888996874251,10.033266011419325,25.00819547389069
0.88,0.008565846227054167,-0.0045821978550522405,0.004170972260435312,0.018042899534726903,0.08262446611769442,10.019547179484885,25.00828957926954
0.89,0.008422107690079044,-0.0059255825133909855,0.004000092832400556,0.0181935175029068,0.03738729006438381,10.06303452421176,25.008383681375793
0.9,0.007134130359748583,-0.005556908033657369,0.0038929847417451618,-0.03546349976972108,0.06653572320592926,9.962326654138284,25.008477780172303
0.91,0.010511801970716713,-0.003797303136534661,0.004424431207812151,-0.0013970621650786566,0.041876928139693605,10.009447387883005,25.00857187562192
0.92,0.0070843313483662795,-0.007557376060776786,0.005310257248397752,0.011799530440729355,0.031095806316151404,10.004161937441548,25.008665967687495
0.93,0.008315299070176566,-0.0053277992352517446,0.0020809554143283882,0.043357026673688466,0.021129727269959084,9.977773479386812,25.008760056331884
0.94,0.009112926177869816,-0.005363811526499892,0.002778526247144074,0.027369439437460046,0.06004468477089975,10.009940157754384,25.008854141517944
0.95,0.007434170231060061,-0.005630795913900873,0.004057713478191868,0.03221587046076982,0.03563922634964779,9.988484472636875,25.008948223208524
0.96,0.007649394577035734,-0.006144883575292345,0.003722824883972426,-0.017732455994005157,0.04812346467460423,10.047967906718325,25.00904230136649
0.97,0.008183075014522962,-0.00393991123780958,0.0011766757149755725,-0.049485602865735355,0.024435023294517938,9.961401341846617,25.0091363759547
0.98,0.007715779682588379,-0.005752882610078574,0.00432559338865581,0.04359761852057904,0.04066995182840662,9.994649643325278,25.009230446936012
0.99,0.007553702502414453,-0.008459410495470016,0.004360795032085521,-0.04689222533762809,0.050526340987354264,10.032831895066941,25.00932451427329
1.0,0.010072820256997022,-0.008147405966882593,0.004950210815068007,0.009135511448188895,0.05485295656363847,9.955026863185543,25.0094185779294
1.01,0.007605769732252528,-0.006085854084160386,0.002841811638225656,-0.008291762619239156,0.061986763389924676,9.973364804574933,25.0095126378672
1.02,0.007598652593172948,-0.004179937567421459,0.004640920766186478,0.021193534739336432,0.08265506930606194,9.988186441323068,25.009606694049562
1.03,0.010078773926491933,-0.0043516233554312285,0.004482995346822534,0.02332176581315113,0.05480044127044706,10.041811615410522,25.009700746439353
1.04,0.010092721431401351,-0.005385409577766382,0.004910786994476765,0.06257131980174241,0.027250516505869075,10.029726700913493,25.009794794999447
1.05,0.00764411485575835,-0.005906835857797114,0.0032328337943696955,0.040695736984881825,0.03069410047014868,9.986699338617,25.009888839692707
1.06,0.009187500721513824,-0.007649625072360812,0.004860585376659427,-0.016044512946876113,0.054155275320988565,9.993699503800938,25.00998288048201
1.07,0.007771218730993809,-0.0043602540691457525,0.004825955887604386,-0.004401737641652462,0.0813368231917887,9.944437224899643,25.01007691733023
1.08,0.010184775389176162,-0.004976915432405898,0.002270755718781435,-0.027670002649241274,0.07663113613387626,10.022792036755867,25.010170950200244
1.09,0.007919656192522159,-0.007640810069632742,0.003429892173397098,-0.030209465821001716,0.07354480460850273,10.047562942618232,25.010264979054927
1.1,0.009813474119932067,-0.005107452664743226,0.003231176528563379,7.600456603470865e-05,0.029650241382211166,10.033101736202054,25.01035900385716
1.11,0.006783539160271522,-0.005954105069973235,0.0026617838356807594,0.0532381629291262,0.03306122150369217,10.0063592663664,25.010453024569824
1.12,0.007194631667124102,-0.005563186739828259,0.0052708432397173665,0.03425146904661062,0.0611031940189692,9.94918971734374,25.010547041155796
1.13,0.008730513766669327,-0.00920780531203734,0.004334803401933286,0.014849331563573952,0.03046650818295881,9.96444007683219,25.010641053577963
1.14,0.008086440287879094,-0.0054205536004782295,0.005777830649816329,-0.05028563972957385,0.09120455420863904,9.978392437791442,25.010735061799213
1.15,0.0055241140678343095,-0.006827544795267548,0.00464999695507269,0.011546885407436158,0.07408387405622327,10.010281407674086,25.010829065782428
1.16,0.0061020867206552695,-0.003933671332725088,0.004405192273970724,0.010443923399219148,0.0685424964471859,10.009522325972652,25.010923065490502
1.17,0.009015900783012084,-0.006799321126130513,0.004895140058962832,-0.021257985429480715,0.03409170945975548,10.001743790586369,25.01101706088632
1.18,0.009282165867186845,-0.005673970771807964,0.004257840981968566,-0.002238121441470496,0.06989410250794408,10.040356002149284,25.01111105193278
1.19,0.008324411887138072,-0.007208683370635134,0.003837718451735612,0.011863960817084716,0.035168405864719476,9.93530621392862,25.01120503859277
1.2,0.00781697296105717,-0.005463248589905107,0.005099806671601324,-0.02152131617637971,0.02022741987725727,9.981731289524454,25.01129902082919
1.21,0.006729756701625909,-0.006175012642447409,0.00562960110242487,0.008815109665956337,0.06023608421948291,10.06456488374202,25.011392998604936
1.22,0.007107694125424923,-0.007151150024206449,0.004222536811014313,0.01603924656246558,0.11132983393281165,10.027987660927677,25.011486971882903
1.23,0.009013262228582385,-0.005984003522215077,0.005461856649480688,0.03411800229915104,0.04782388639461315,9.970718902933461,25.011580940625997
1.24,0.009028152779079833,-0.004821451906353914,0.004609528151456503,-0.011921996724026386,0.05754080314101602,9.985002115711838,25.011674904797122
1.25,0.010793183720415302,-0.006287226364412462,0.0017961254787268346,-0.028487472734125538,0.06954460538778125,9.972930490681687,25.011768864359176
1.26,0.009925105233820569,-0.006640779203339556,0.004118668488777336,-0.04445795844355591,0.026454738810867302,9.997603824375576,25.01186281927507
1.27,0.009571460821832632,-0.008243163357482496,0.0026231880644832467,-0.028180773232935694,0.0514866327070817,10.024317417768934,25.011956769507712
1.28,0.006078466475457376,-0.007111790806035594,0.004483600266618693,0.018780091405900524,0.039370024545499274,9.963377069214753,25.01205071502001
1.29,0.008629025411375325,-0.005613216148940025,0.002445957527718397,-0.01572190395447622,0.0762312046739394,10.033557479329424,25.012144655774875
1.3,0.0052278758760408274,-0.005923904980453465,0.003481046362997831,0.012133497631000592,0.09151335942787175,10.060437667827818,25.012238591735223
1.31,0.008551262926059934,-0.0050172649232902225,0.00415206557526455,-0.012950037843885836,0.0994969211116217,9.996765615334663,25.01233252286397
1.32,0.008912159702451024,-0.005679104076238904,0.004583071176161613,0.032142260917801924,0.07771317912283732,9.941837330583915,25.012426449124032
1.33,0.0071543920845561415,-0.0062514559793640425,0.004216453706322653,-0.027440014047803704,0.023677088343309956,9.94807769498797,25.012520370478327
1.34,0.008984634170500903,-0.006551237641114401,0.004573283981305324,0.027926249501869678,0.11579876194336183,9.99685767984963,25.01261428688978
1.35,0.007680993449701546,-0.006164559034259383,0.00491247094622648,0.02717149996099138,0.09944265889534082,10.011769814405847,25.01270819832131
1.36,0.005608327554735013,-0.007815061259304666,0.002369596062812897,0.0007874080525488083,0.0509938880232214,10.022305084230558,25.012802104735847
1.37,0.005199660656182034,-0.006949570216217248,0.004824377289700515,0.027787621500977418,0.07080368736909703,10.018782018426139,25.012896006096316
1.38,0.00765813912034091,-0.0057230938852814075,0.005198139246381872,1.0712963761353887e-05,0.013270423297962242,10.03383012444021,25.012989902365643
1.39,0.00959322335872123,-0.006096793108616595,0.005488944478526337,-0.03699195358844543,0.07521594797840299,10.029286772799773,25.013083793506766
1.4,0.008110551990120932,-0.007172357513358447,0.0033461596125813915,-0.03266616313472179,0.040854727863055655,10.07299038564447,25.013177679482613
1.41,0.006223356184921981,-0.007243387395227114,0.003606181643118128,-0.0008376671360814454,0.023707167087833457,10.030731335670817,25.01327156025612
1.42,0.008964302023254322,-0.003590922236367623,0.0024796003330852558,-0.02163345616719543,0.004098477371285304,10.021735825537485,25.013365435790224
1.43,0.008471392961911902,-0.007456761514820548,0.004522166797309522,-0.025951734473493852,0.06686642358222826,9.979097118780723,25.013459306047867
1.44,0.007842696019174727,-0.008563268156186542,0.005021126690725333,0.02276292582809054,0.06301110308896618,9.92224852515331,25.01355317099199
1.45,0.007273999144629523,-0.006747460333722977,0.0028232723475813412,0.013007176221137642,0.04976067280394906,10.050438164550105,25.013647030585535
1.46,0.007214860067974934,-0.005400953383027116,0.003791831224969954,0.013403035470475543,0.07904556962508441,9.98236589436733,25.01374088479145
1.47,0.008394394402738977,-0.005493309404499619,0.005452727821080984,-0.0221552325245389,0.05715496873030416,9.993563483942596,25.01383473357268
1.48,0.007588656618962745,-0.008067600943584025,0.005173944658229181,0.04168707156630245,0.053580216355746814,9.96590890400052,25.013928576892177
1.49,0.007602214193483295,-0.004439570577591673,0.004421714824500718,-0.02328062741065982,0.08489458036919212,9.999750964983585,25.01402241471289
1.5,0.007842634963755986,-0.005511713748335187,0.00614611381613893,-0.005074553038492838,0.08755840193809827,9.975830777956302,25.014116246997776
1.51,0.010492376634864504,-0.00590286641081411,0.004176209652648783,-0.06550848895281991,0.03399288390201401,10.012850050833482,25.014210073709794
1.52,0.009291488188959663,-0.007183925445874286,0.004366377409880081,-0.005938545610142685,0.014181120637635866,10.037617105003248,25.0143038948119
1.53,0.007968964582455372,-0.005560528503959425,0.0030832943134556537,0.006451708382533458,0.06876556145197776,10.018530728313067,25.01439771026705
1.54,0.006092519008029238,-0.008902176810387808,0.0027708774757114313,-0.03740892737549685,0.06635375966002573,10.034141721062463,25.014491520038217
1.55,0.007449589658072801,-0.006410468221308267,0.006130954278672469,0.03575610691111963,0.07806852310036266,10.021523349074943,25.014585324088358
1.56,0.009327192043888759,-0.007346927562878278,0.004382479297696053,-0.05057583794311242,0.05745497972223081,9.974492820818032,25.014679122380446
1.57,0.00751150611637961,-0.006398109373256133,0.004203858214356921,0.04001183645839075,0.08952377578655739,9.974686278056952,25.01477291487745
1.58,0.008743005340370471,-0.006474961877437621,0.005170236686007795,0.00016745448881953632,0.06483141441819898,10.033928520239648,25.014866701542342
1.59,0.0066296741286291155,-0.005991125312692825,0.006857441099255415,-0.04872174749602359,-0.003996274787453721,10.006323952346905,25.014960482338093
1.6,0.00826769569115033,-0.003993499690751358,0.004100672195990529,-0.07439570467126291,0.06231317747473779,10.024053848754647,25.015054257227682
1.61,0.008696932514395756,-0.006079496472149768,0.003812551660719375,0.03862919724983319,0.04044123896483219,10.010261012676324,25.01514802617409
1.62,0.007064621123929497,-0.005397578097459426,0.0030633090918956553,0.02109209518980973,0.02495298976439797,10.03439432952805,25.015241789140298
1.63,0.008798702283576116,-0.004480598193775726,0.004403184547960953,0.009777069756829498,0.040920652740237304,10.009627378311217,25.015335546089286
1.64,0.00765650151973317,-0.005364448188967826,0.0036604596388989464,-0.0026332345553921792,0.0797152206069402,9.993568477115296,25.015429296984045
1.65,0.009122656550558179,-0.008563968517901173,0.003630831895069489,0.008359514801365785,0.04048706469170723,9.975092229161863,25.015523041787564
1.66,0.005611025605851203,-0.008093085162318088,0.0055002484527953005,0.006692783757295458,0.03276365532348004,10.03072176932636,25.015616780462828
1.67,0.009074221978366024,-0.0070072723265987066,0.0023472461983550133,0.01931377596531371,0.03644994522237115,10.011944173819941,25.015710512972838
1.68,0.004442565394590019,-0.006760893711105689,0.006662456513472143,-0.021544197010020496,0.012952391437553057,9.985991994641694,25.015804239280584
1.69,0.008521861125756376,-0.006783401200469285,0.004511588230450337,3.7295121818689374e-05,0.07247259429757892,10.009886557775049,25.01589795934907
1.7,0.006126849976406669,-0.00641625270777669,0.004109425220317312,0.028777038450846858,0.030400497200335906,9.99304885158681,25.01599167314129
1.71,0.007896679217814742,-0.0048928714296338875,0.004379109748859657,0.05087780105298976,0.003802908517376892,9.990640662210367,25.01608538062025
1.72,0.008801991221729597,-0.0069637211951230635,0.004987596949251603,-0.03059801843287946,0.05240199468088577,9.991200880402044,25.01617908174896
1.73,0.00995472433714879,-0.007358209327511978,0.0030235347787139844,0.01961146314270249,0.06502772846346612,9.96332343769887,25.01627277649042
1.74,0.00960294120358428,-0.0062678815813730845,0.005544203531273213,-0.016098062195372617,0.05786987262448077,10.028763388289248,25.01636646480765
1.75,0.00746895714572938,-0.0039629361932210045,0.004144634398485997,0.07453548854039779,0.07755143209075166,9.972703202542416,25.016460146663658
1.76,0.008309874587987234,-0.003809394769662134,0.0036020524748114117,-0.0012685576619758986,0.06294048346094663,9.988482692149006,25.016553822021457
1.77,0.00687065348489005,-0.0066279898912396966,0.004497567345707452,0.015654534178036313,-0.0057254084752136475,10.022803987882495,25.016647490844075
1.78,0.006121089113383383,-0.00510754073628843,0.0034073515506204827,-0.012744822672914177,0.05480140351252529,10.052006334048848,25.016741153094525
1.79,0.009377375192880276,-0.00935196442686066,0.0031347776473854144,-0.03629871526826766,0.06550928980090724,10.030508690528205,25.01683480873583
1.8,0.005976238218519078,-0.007156721252909533,0.004272432491219838,0.006656893748589025,0.012675765445435055,10.048315892073642,25.016928457731023
1.81,0.007784928049460294,-0.006354728596527221,0.003824896641481933,-0.00479382151219068,0.043102006197815186,9.995167747769825,25.01702210004313
1.82,0.008244065888743933,-0.007411950458720351,0.0047775346049889564,-0.009917591730167503,0.024548119163006248,10.010381618754472,25.017115735635176
1.83,0.00879519916446258,-0.005460946887281459,0.004612186787026389,-0.01637019023742002,0.07665802162019521,10.021666255795685,25.017209364470204
1.84,0.008355701600970392,-0.003150897376176506,0.003904196411842239,0.050316882352914295,0.05194742198556493,9.979399207966564,25.017302986511247
1.85,0.007631500137998508,-0.007054938612500329,0.0028645110623643794,-0.04254547005458144,0.11928676481009476,10.026290655888515,25.017396601721344
1.86,0.00650663385487871,-0.007244316238523286,0.003922251580182722,-0.019225797635393733,0.1052814924994798,10.048500396284352,25.01749021006354
1.87,0.008401154154197257,-0.005928401118026973,0.003157911194827316,-0.03899152507365412,0.03677585349764877,10.000868804954868,25.017583811500877
1.88,0.009080221476823956,-0.004964822258778674,0.0038243868618357815,-0.030555752880058865,0.05516892503849607,10.027885982286072,25.0176774059964
1.89,0.007216500626402346,-0.005232200910838281,0.004206770946234715,-0.0396510257496688,0.06607716534327022,10.042495135213846,25.01777099351317
1.9,0.006262247288701943,-0.006095172358378167,0.0042882393932818196,0.013553407178115668,0.05575589206615742,9.983723943693558,25.01786457401423
1.91,0.006920366256214696,-0.00573421925002758,0.002399695266216432,0.026472056162980536,0.02491938686265499,10.012872537955042,25.01795814746264
1.92,0.009603423320014605,-0.004252870020916796,0.0037222309322667386,0.0023122719915994626,0.08939025873387182,9.986455239645794,25.018051713821457
1.93,0.008436145205406888,-0.009373890752119824,0.002728017573708134,-0.013385274356793517,0.02310093362232013,10.019096296787213,25.018145273053744
1.94,0.007647465295817444,-0.007500986229997603,0.004785836130893725,-0.01116767529096746,0.03373507863644415,9.980565079466325,25.018238825122562
1.95,0.010396755836897593,-0.007647260607201023,0.003078790255506288,0.017659964893887263,0.026990256007754197,9.97264988912065,25.018332369990983
1.96,0.008282538041971916,-0.003744437392100531,0.0026553882562061065,0.028437642765521493,0.053221773876774764,10.035677442751497,25.018425907622074
1.97,0.008298843346768331,-0.003450181608861648,0.0021830649370028063,-0.009233874459274965,0.05784162481689429,10.010104776701958,25.01851943797891
1.98,0.006462716951785002,-0.0065930492490451735,0.003427352745859048,0.043165388014404706,0.09443758913388756,10.042006785222153,25.018612961024562
1.99,0.008975121545304374,-0.0056616763922508265,0.0020475417343936587,-0.017317766098061755,0.030241922057269895,10.029448526817948,25.018706476722116
2.0,0.008618492483480972,-0.006808554442297911,0.005401891938635363,0.04284959106902451,0.09043207449932461,10.005520776234668,25.018799985034647
2.01,0.007246894956275697,-0.00689126139634313,0.004595244771884985,0.023381056346224494,0.0787440042863836,10.00986936932414,25.01889348592524
2.02,0.008915511778804324,-0.0053726608904893156,0.002145842950876711,0.007318008742109988,0.06062261943047852,9.979884110935075,25.018986979356985
2.03,0.008645641327913902,-0.007448031272344158,0.00425880372274709,-0.01903477312667858,0.03823141987773011,9.953927623142958,25.019080465292973
2.04,0.006291518677521128,-0.005375148993439711,0.0031127412052618904,0.005832597820452301,0.056737095560548324,10.029486052341877,25.019173943696295
2.05,0.006460838419687374,-0.005000651808924641,0.004265808973844426,0.03936831848937337,0.09495339221570281,10.050494094665911,25.019267414530045
2.06,0.0072632278383285235,-0.00396834961137051,0.0035152823362732833,-0.021165630818670234,0.017778290216359405,10.034886994498093,25.01936087775733
2.07,0.008038529208765122,-0.005623521173249959,0.003318367472458525,0.04301080314602702,0.1014409385218919,10.020623078710155,25.01945433334124
2.08,0.008565363552079916,-0.006746833286030615,0.00354719784556217,-0.05835431842810881,0.06811021497614057,10.0228773077731,25.019547781244892
2.09,0.009635171167764009,-0.007456820473517406,0.0013459416359775608,0.03910905063775768,0.09790275343153054,10.03421146890833,25.01964122143139
2.1,0.009933124394014274,-0.002430940866350196,0.003554203808005735,-0.016071566948875654,0.029057865192525553,10.02218995685812,25.019734653863843
2.11,0.005675794351255778,-0.006434677566674322,0.003685154755175264,-0.02222565331276696,0.09917698899158636,9.950557314004737,25.019828078505366
2.12,0.007772091390773291,-0.007558743258690588,0.004637517256724125,0.01855339837184002,0.06682012929278967,9.998486666639002,25.019921495319082
2.13,0.008629408850343304,-0.00809216786774703,0.004769116404864377,-0.026206688229142242,0.00014341353159422893,9.988097482045672,25.020014904268102
2.14,0.01046322197833507,-0.005759255534588116,0.0036289423217246435,-0.013869695437019595,0.08900177644775675,9.980051819575035,25.020108305315556
2.15,0.007829596142710974,-0.005138640526244014,0.00209626123394206,0.015129918406913754,0.021690435503629715,10.020471142210674,25.02020169842457
2.16,0.008197268843572763,-0.006546649529247934,0.0060326075142516505,-0.06558421056554004,0.11654144298205944,10.000589039142467,25.020295083558278
2.17,0.007790992719434051,-0.0036649573444326724,0.0027858852324397923,-0.08228822173197026,0.037776164684323446,9.97708200854125,25.020388460679804
2.18,0.00870471100016335,-0.00555283963069228,0.0030440480273487393,-0.018127743955989036,0.04766319091763238,9.98389945109358,25.02048182975229
2.19,0.008212875337564329,-0.004302473628435759,0.0036438291252847395,-0.022945562312046374,0.025430027344032366,10.031400461565857,25.02057519073887
2.2,0.0059696448209962845,-0.006024587957068424,0.0030073345957282362,0.03758086845708739,0.05074508294938392,10.004538827198965,25.020668543602696
2.21,0.007589190873603342,-0.006114222877559169,0.0021237825623829313,-0.03224312580577733,0.05986172955341988,10.012462040388922,25.020761888306907
2.22,0.0060612099928151865,-0.005325106430264265,0.0034250094342133516,-0.00503515829141472,0.06896324937754454,10.014981881025632,25.02085522481465
2.23,0.00492230678981532,-0.004901218348748611,0.004299606730801664,-0.03007738167271739,0.09127848038441078,9.998458519685453,25.020948553089084
2.24,0.00714335021115622,-0.007843562295481539,0.004919388685945771,0.05181394805750956,0.06964492650373831,10.068173060171898,25.02104187309336
2.25,0.008419220747072517,-0.0026643568042422974,0.004462207458597431,0.03680487507919339,0.06423445958794412,9.98196378026817,25.021135184790637
2.26,0.008465243769514418,-0.006233699102151991,0.00489845345392087,-0.019500224243084858,0.07279810997951058,10.009683234681308,25.02122848814408
2.27,0.008750102241497784,-0.004247584988008727,0.0034265447894989867,-0.01612398707973257,0.08119882853308115,10.006343882571391,25.02132178311685
2.28,0.007477511032467245,-0.006670744439276772,0.004869881893296888,0.02671709445902179,0.030559988132356372,10.03708629337626,25.021415069672116
2.29,0.009798049328356078,-0.006642376690409021,0.0035327488994275997,0.016576667080418404,0.09140510060493329,10.036380976022922,25.021508347773054
2.3,0.008376892668643759,-0.006344066100018062,0.005047259018453879,-0.001001802021237393,0.05324266286198716,10.062160191762908,25.02160161738284
2.31,0.005297867251257145,-0.007157387065683652,0.0031393420326424094,-0.007170254081458761,0.07882929356745962,9.992898816249927,25.021694878464643
2.32,0.005215572785136627,-0.007349093822116326,0.0029933282725694813,-0.05430969240412947,0.023507655261433294,10.018092668315582,25.021788130981655
2.33,0.007758674414577404,-0.004441847751675631,0.0037304332836902276,0.02258075098815313,0.06933112545816449,10.041773584044591,25.02188137489706
2.34,0.006763023535674616,-0.00607973635769894,0.005154090983585484,0.013284604657023868,0.036166578222645615,10.02412086980716,25.02197461017404
2.35,0.006828849420662114,-0.007274804837490028,0.004614403855201646,0.006635038827898893,0.04175752586141289,10.020223817646938,25.022067836775797
2.36,0.00773415666112304,-0.0050935214330067365,0.0039849885290251736,0.00392790498052338,0.04093313457515425,9.999411495245983,25.022161054665517
2.37,0.008841996377707481,-0.007449109359656897,0.003986706884132906,0.04395381406626423,0.0965380088499501,10.011123812456656,25.022254263806406
2.38,0.007747171982764212,-0.0077022472937457835,0.002280174257344443,0.0032648147366185704,0.017747862356612444,10.06012288362772,25.022347464161665
2.39,0.008822898842329594,-0.0064913333351051695,0.0028754916901879376,0.03263705662103901,0.07892779397972113,9.932311817053098,25.022440655694496
2.4,0.007884585275692002,-0.004420773599710976,0.0014911883700908846,0.0027744795196738854,0.054313546167065525,10.026953294025619,25.022533838368112
2.41,0.0062040335721160085,-0.007292041018653375,0.005607296753392362,-0.011984124406373885,0.05138526393930145,10.024924414046549,25.02262701214573
2.42,0.008339104379503156,-0.004925755863354283,0.0027458229889611467,-0.021660551012660362,0.04179995486453902,10.01128965247235,25.022720176990557
2.43,0.006656556949675369,-0.005373060796588206,0.004064101764028992,0.04170137110048721,0.0805103026422537,10.039516130205838,25.02281333286582
2.44,0.008658486582636953,-0.0062627393872998335,0.00430595809910009,0.0034463041864587207,0.09973533466592328,9.949385362415956,25.02290647973474
2.45,0.008189742901886132,-0.004911125655281104,0.004887709110138918,0.062213976552040424,0.11812240130504098,10.019714923185179,25.022999617560544
2.46,0.006056153606729876,-0.009146175977477198,0.005101919937416658,0.02651467912306538,0.05680915380785219,9.998397012381652,25.023092746306464
2.47,0.009425270111914325,-0.007428872227318672,0.0019541810527998085,-0.016779311260930116,0.05650081354459613,10.022893071219382,25.023185865935734
2.48,0.008118841785208641,-0.004696826483109259,0.005977353974677746,0.014143315414902654,0.11349803600735466,10.00831198546568,25.02327897641159
2.49,0.008619557086521741,-0.006520403375219973,0.0030175563162566513,-0.043118056840350916,0.10391384739425563,9.966032663095687,25.023372077697275
2.5,0.008013741550004786,-0.006418970585439359,0.002883425303698302,-0.015234927765162727,0.06548195795782527,10.018452802632423,25.023465169756033
2.51,0.010458506781035944,-0.0035007642370990166,0.005249653551910972,-0.041816349567916564,0.03697192738153862,9.957718161239278,25.023558252551116
2.52,0.006894979522629047,-0.0048029729459838095,0.004703589050447692,0.020198191899676813,0.09100778677168078,9.96600438258411,25.023651326045773
2.53,0.008531054749044864,-0.004250468626138712,0.004698908257147406,0.03141659859143596,0.08393495484109055,9.98401293472283,25.023744390203262
2.54,0.008888017083565203,-0.005108331203278906,0.004374870548802316,-0.057930571076034804,0.02787798146254757,9.986054957218917,25.02383744498684
2.55,0.00585966664434298,-0.00588293049162522,0.0033881888452659626,0.04779692540427581,0.054560677899545794,9.97288470476831,25.023930490359774
2.56,0.006464190850831976,-0.0036454567329788465,0.005901894874974274,0.005982256648558216,0.02160341521576367,10.021562081606602,25.024023526285326
2.57,0.009631064720354734,-0.005642701216401776,0.005485687633047923,-0.02778312177815292,0.034562485274663865,10.01711894554982,25.024116552726774
2.58,0.008014463816722191,-0.005716083812343109,0.0027971814924918187,0.054053810484066586,0.1194112016866051,9.971827503815053,25.024209569647386
2.59,0.008476389565398609,-0.005915459700205817,0.002567082671482089,-0.016351389801459573,0.07230805398104603,10.042504459145878,25.024302577010445
2.6,0.007938563465820083,-0.006111621389399532,0.005977317283309105,-0.06337571068763169,0.060318580929376364,9.989514624749955,25.024395574779234
2.61,0.009073055994216091,-0.005983976385271947,0.0042736660407811915,-0.056173835970909324,0.020432452160213624,9.986934417291488,25.024488562917032
2.62,0.008053054853725037,-0.006284079578713767,0.0028093300828728844,0.0033112505994736577,0.08610003008739603,10.016442339682625,25.024581541387136
2.63,0.007818737746871685,-0.007044537559313519,0.002624652907184539,0.02997298311502958,0.058621431403723334,9.982544929698015,25.024674510152835
2.64,0.008613466177457042,-0.005452229476093471,0.0020346217374951144,-0.003965698616117216,0.07734763572913789,10.038145189418456,25.02476746917743
2.65,0.007852778435005847,-0.004606018059740107,0.005165146112785953,-0.002889440533315406,0.0318579226532749,10.01584426110359,25.02486041842422
2.66,0.009231004211462286,-0.005945521510337956,0.003070450139233934,0.015886228915266615,0.09238928440948728,9.983382788065292,25.024953357856507
2.67,0.0066995614071703275,-0.0055175531333494995,0.004417208037801679,-0.01848711762797061,0.0790456355311081,9.992065325727708,25.025046287437608
2.68,0.009544797333926078,-0.004460028489521083,0.003854548477815711,-0.011943725480373127,0.0929890663639268,9.961231020599001,25.025139207130827
2.69,0.0065069529453669565,-0.006446749235815257,0.004238954314291578,0.06323289419326533,0.04071935843298083,10.032838508889622,25.02523211689949
2.7,0.007757500105532715,-0.006809051751308718,0.004278173296466889,-0.001717189857761241,0.06547129397641979,9.996694032007623,25.02532501670691
2.71,0.007395250710307268,-0.006879292517215523,0.004342598117733783,0.027244099560989214,0.04814808152745212,9.986768912900956,25.025417906516417
2.72,0.007517608903844954,-0.005658253855430307,0.004300524425137335,0.05594705477609975,0.05869586551638336,9.983480942047374,25.025510786291335
2.73,0.0066326851986901105,-0.006673737573411577,0.005581554633908109,-0.04316179769735696,0.11010933486900744,9.98744158795343,25.025603655994995
2.74,0.006605504584718856,-0.008963316228558744,0.0019519703314332371,0.06340194715503442,0.06904107183956068,10.009675526409678,25.02569651559074
2.75,0.008034931935892003,-0.005956715810754222,0.003870628059032367,0.006642114369839928,0.11991977629974743,9.934952205778531,25.025789365041913
2.76,0.009457027794714202,-0.009741968206344112,0.004435527261873906,0.007977045585225155,0.05044744898915838,9.99828421167734,25.02588220431185
2.77,0.009873725842164288,-0.0075788930708484,0.0035822128370311154,0.0060261555642571124,0.050418033814108434,10.011123381350025,25.0259750333639
2.78,0.007096529699325655,-0.00725208446450854,0.003641111794474656,0.0008394761353483774,0.021093521010829813,10.017306913209946,25.026067852161418
2.79,0.009712982340421405,-0.003427658654317472,0.0036304668524558374,0.023028433550987423,0.04269531270977364,10.06487587450317,25.026160660667763
2.8,0.010286072256877363,-0.005950192932221526,0.005929060129371189,0.04161395236992282,0.08150381437679279,10.031721463808895,25.02625345884629
2.81,0.007888041620415811,-0.005816519043535398,0.004402021919907118,0.0024497085782966325,0.08983156893256376,10.055367347585985,25.02634624666037
2.82,0.011814624415241042,-0.004808200195217296,0.00322200901705339,0.025787520384358453,0.04190521642925375,10.003833393974828,25.02643902407337
2.83,0.009162797444331029,-0.006506565551918078,0.00346127479880867,0.018756900989282694,0.08133000731329203,10.002623929134606,25.02653179104866
2.84,0.009090321631870533,-0.005956480177120386,0.004306433505962987,-0.015457456413212146,0.10223094564657928,9.970788969135393,25.02662454754962
2.85,0.008016782266238351,-0.005528783622752392,0.004467462487179765,-0.026693152668987547,0.020713571333960394,9.97490957377202,25.026717293539633
2.86,0.005675639680753502,-0.0050667982639466536,0.0029197786381866694,0.0389671463135701,0.09373646718236966,10.002733742897114,25.026810028982077
2.87,0.006269241037328707,-0.006081775741402155,0.0040923791036459,0.016436231866703416,0.05757902182653034,9.966959941569504,25.02690275384035
2.88,0.007167792602513263,-0.004836555399264836,0.0025236073169920023,0.068090010230233,0.09636586902195934,10.01644462097055,25.02699546807784
2.89,0.00751166750147293,-0.006818823788906201,0.003948754002626727,-0.024129897671768093,0.051574987439246156,9.98294558235456,25.027088171657944
2.9,0.008334637141576687,-0.0074110501294729625,0.004796710945201851,0.004474267227854071,0.06655099888878174,9.994187184198067,25.02718086454407
2.91,0.00807560284200164,-0.008648724754636674,0.0018455494155632658,-0.04208558258721006,0.11757080160004474,10.012704055898602,25.02727354669962
2.92,0.007985216848484827,-0.006309354244900896,0.0038862378750679034,0.015244560005832818,0.04604568718990038,9.955118844309464,25.02736621808801
2.93,0.007966421052163738,-0.005684216224685747,0.005042414570833129,-0.0009522159269350974,0.04882293374836677,10.027808300183025,25.027458878672643
2.94,0.006666674118898931,-0.0076407602300611124,0.0027973437563238793,0.028729127201285096,0.07929397543186237,10.036727914749347,25.02755152841695
2.95,0.008346700000602449,-0.004257073669894976,0.0035255266179365385,0.05565677422429795,0.06878899870699555,10.040278106265914,25.02764416728435
2.96,0.004997960187008415,-0.008385590007654526,0.0030836596049243874,0.016362617215071852,0.0046721588006182965,10.000158550953993,25.02773679523827
2.97,0.0073307253350057425,-0.0065717440781566175,0.004042439235279009,-0.024484545207113503,0.06435328325972209,9.979790874901962,25.02782941224214
2.98,0.007625904403013063,-0.00453092454523923,0.0032563809637504945,0.019717226700910098,0.08534193674790864,10.043617441472644,25.027922018259403
2.99,0.0069652184486293485,-0.0053295742460713535,0.0023107937230812687,0.05012464684572802,0.010944475646014987,9.9667351988817,25.028014613253493
3.0,0.008467630046384003,-0.0058564255427832265,0.0038378132610900157,0.08938125558699354,0.08613981415606721,10.012285535073504,25.028107197187857
3.01,0.009905931328579115,-0.006871090423412605,0.006266327987576486,0.002507925309356864,0.05628106588134225,9.943223310158865,25.028199770025946
3.02,0.007729482260926281,-0.007787823022958319,0.004076911539094308,-0.021623073138704766,0.05474141735386954,9.982195683985266,25.028292331731212
3.03,0.006708505759617478,-0.0070524581869389,0.00443673663001704,-0.016007279716482446,0.12951762981545728,9.997050302669875,25.028384882267115
3.04,0.00866669850638015,-0.006871034780355962,0.005086145659551041,0.009890400248001936,0.0646641659801042,10.023965903955938,25.028477421597113
3.05,0.00938900930962536,-0.003989177540811392,0.004582354747838294,-0.012771682976103062,0.09278862494508308,10.019297190195415,25.028569949684677
3.06,0.00963611445450284,-0.00863311779916368,0.0036503027965086913,-0.037068131211739984,0.05486303802157038,9.999594453738501,25.02866246649328
3.07,0.006959593692411888,-0.005833083794421651,0.003371405858883589,-0.004998163659918681,0.07213346046224633,10.025414406053734,25.02875497198639
3.08,0.007800610589660321,-0.003364955167714331,0.003813308223937584,0.017046392484419578,0.06736278002617176,10.007843606644997,25.028847466127498
3.09,0.008496550780628257,-0.00632517706189393,0.0040832846167525175,-0.06298941012336921,0.07965414361026883,10.020730531043407,25.02893994888008
3.1,0.008007220016523285,-0.005372346307637577,0.005281838289101895,-0.027996038300137225,0.06572945379510595,10.025837231394567,25.029032420207628
3.11,0.009976872797123995,-0.005566531885327166,0.004648501574639163,0.03668421195675183,0.07216159040886883,10.015394457818122,25.02912488007364
3.12,0.00661896258897732,-0.006123027439381869,0.005034318411371948,0.029949969525022286,0.04929002943456473,10.01828730302704,25.029217328441607
3.13,0.009039162366100584,-0.00570374637408693,0.004975033355524748,-0.017086595826114683,0.08896145781339648,9.953592444343785,25.029309765275034
3.14,0.008588920050792582,-0.00431957123843695,0.004318295072652823,0.026048915224509726,0.058369000931744186,10.035995594583241,25.029402190537432
3.15,0.007573162021314759,-0.005529822240293767,0.0007763461865619467,-0.02186953111173893,0.060392690206856274,10.0070433628714,25.029494604192312
3.16,0.00845946288366206,-0.011107777955300697,0.00210419025185404,0.014563306801513673,0.02854141538185653,10.025462082818699,25.02958700620319
3.17,0.008542122321129181,-0.0053314589278264865,0.0027213283418460765,-0.053830023842170706,0.0391735724007138,9.955095839771545,25.029679396533584
3.18,0.0071454775497452735,-0.004081242615940215,0.0034675668552700562,0.026393381990568787,0.069076811770253,10.019696436700759,25.029771775147022
3.19,0.010691504374883582,-0.006002687794446885,0.004448839794569393,0.04574248188745678,0.04902678326346952,10.024609941805204,25.02986414200704
3.2,0.009940249278198329,-0.005816562037329213,0.0028974216212401187,0.0035274704152942547,0.055458582469278955,10.046915226626524,25.029956497077162
3.21,0.007868327057966851,-0.0060498550306661274,0.002498784182578278,0.06400318090206122,0.045792083439824376,10.031782226928636,25.030048840320934
3.22,0.007693001514391012,-0.007039068931596412,0.005016793532906178,0.011120307379404327,0.06714429782861235,10.01301288732907,25.0301411717019
3.23,0.008041534249022307,-0.0063959140488065985,0.003883199876315166,-0.008445539743834739,-0.042506305705807684,10.05421709838715,25.03023349118361
3.24,0.0082677464220874,-0.005136460120434308,0.0029003165484636807,-0.01929517763017197,0.051109549941382955,9.99805382719942,25.030325798729617
3.25,0.0067500948408544745,-0.004453449098436459,0.0035464294405747965,-0.02196730179760133,0.0645998739758774,10.003685202066492,25.030418094303478
3.26,0.006299789488883751,-0.005378662206863654,0.004509706786635956,-0.019949279364886142,0.06205360646623793,10.004045705825332,25.030510377868755
3.27,0.006163141691291953,-0.005678725598350951,0.004809141401671211,0.029381957138643066,0.02034243194491147,9.979330741731461,25.03060264938902
3.28,0.008449263742047516,-0.0051152259227340464,0.002455303992100176,0.023305728325122142,0.03996034758344974,9.976194327598556,25.030694908827844
3.29,0.008397248185995436,-0.006423667663258625,0.003468930825402891,-0.016161928230258325,0.05504574593269727,10.001993474045854,25.030787156148804
3.3,0.009044666731303672,-0.003929015685056078,0.005973807060060395,-0.004751953083069998,0.02907332584343779,10.029844285672112,25.030879391315484
3.31,0.009577769445807086,-0.006153627854282257,0.004387992179328977,0.04133339286773032,0.004381146781171512,9.955389900242446,25.030971614291467
3.32,0.008920187446141092,-0.0058303508709807534,0.004143840606702699,0.03163250924324962,0.10182744753752068,9.936969472905448,25.031063825040345
3.33,0.008988503758251418,-0.006082995704436305,0.003197784369988972,0.02600989503836501,0.1037337868205658,9.977506007493348,25.03115602352572
3.34,0.00750263232099697,-0.005112525471172761,0.004003292620319951,0.04893683480679632,0.052889310135359816,10.015171586898338,25.03124820971119
3.35,0.008408251972242006,-0.005061889060916935,0.0035876743908126296,-0.02003019943641266,0.08590194872859888,10.031805667763694,25.031340383560362
3.36,0.008907497796355768,-0.005469620355158248,0.0026417056043973736,0.0532880806718947,0.09821015633508627,10.004810398585047,25.031432545036846
3.37,0.009730765749423493,-0.0067010426412596824,0.0021793951224962976,0.0947981584554569,0.09569534415726359,10.02239971312146,25.03152469410426
3.38,0.006745947548496438,-0.007429463224949651,0.004057390650523287,-0.028367831929608348,0.015032233581626205,9.958862308573545,25.03161683072622
3.39,0.007671379393344516,-0.00647156475469683,0.004681672162030727,-0.02646316460773637,0.09643762436492637,10.0206900452268,25.031708954866364
3.4,0.008407850433431245,-0.005557532981097999,0.004450811303061562,-0.01685439550105374,0.05406881769489218,9.996855315106307,25.03180106648831
3.41,0.008739361601602685,-0.008951134678488421,0.0035991179225090928,0.025548320115709892,0.033266812651796734,10.01629316435572,25.031893165555697
3.42,0.005383747922612632,-0.005949516102483086,0.0039949037305532205,0.010549373278401004,0.03410484571571845,10.05591939293473,25.031985252032168
3.43,0.009254638729747616,-0.004337311850190431,0.004223052553077604,-0.00732033619569385,0.030076146512425378,10.032395359344646,25.03207732588137
3.44,0.0073995667071237205,-0.005320774442435967,0.0034192905989432554,0.003181667314639272,0.06930914275445352,9.96719344639387,25.03216938706695
3.45,0.007998328818267982,-0.004619409156254925,0.003386451519411634,0.02591928754925916,0.11870114420668751,9.964692520646896,25.032261435552567
3.46,0.008966814367091002,-0.005051638083830776,0.0029497290011560964,0.012173064179685857,0.03588447853019963,10.091170593907117,25.032353471301878
3.47,0.009168672953860882,-0.005022007116479893,0.004112118476109923,0.038735774344507506,0.06577215560483915,9.965811440772178,25.032445494278555
3.48,0.007085211850366818,-0.007202888426005798,0.0034085711654066753,-0.02803488224328774,0.07876883615909007,9.961503449673039,25.03253750444626
3.49,0.008651113355950353,-0.007337875234361958,0.004481263473481857,-0.03838661534226204,0.05812042542470056,10.009372533425394,25.032629501768675
3.5,0.006509893365345929,-0.006285696018214389,0.0041206125300314094,0.012947742215828813,0.045566441661120796,10.034547889476194,25.032721486209482
3.51,0.0109341561740707,-0.007928241917728514,0.005619216023139147,-0.0243076413892928,0.07541919189958034,10.011955061717378,25.032813457732363
3.52,0.008179810896784736,-0.005424359314777652,0.0041301827047270255,0.019566272568855972,0.09096909545391506,9.990532564956643,25.03290541630101
3.53,0.00853367218183428,-0.006215159146106825,0.005599455199603204,-0.018285525954582854,0.01059812482775565,9.940495132930469,25.03299736187912
3.54,0.0074522346269303335,-0.0044148715989490534,0.0032911961677656748,-0.0037324247420843365,0.0548625093356508,9.970348540033797,25.033089294430393
3.55,0.007927697784318457,-0.007500747573206307,0.004500526092382272,-0.02458619099605325,0.10052985800428599,10.033130072969689,25.03318121391854
3.56,0.00973415114831184,-0.006108298651749196,0.0037834257314256995,-0.036301406241648695,0.04548740456867064,10.018095286133004,25.033273120307264
3.57,0.006662459644318488,-0.0063210097149732315,0.0022479263143063196,-0.017246730730816236,0.03522968116864787,9.994279334918957,25.03336501356029
3.58,0.006904546415937407,-0.005682499535447211,0.005450914517515536,0.03426662655997422,0.09095238647052468,9.981568901830647,25.033456893641336
3.59,0.011371053033475404,-0.006821219119099261,0.005578830172309984,0.015363332839029336,0.05769362091942297,9.972839664240444,25.033548760514133
3.6,0.008292502976481977,-0.006211746705444926,0.004475853896898767,-0.0073654353975012975,0.022474592736066085,10.042320967588898,25.033640614142406
3.61,0.00807429978041595,-0.005845445984142894,0.0035508335208906637,0.048120961279659084,0.046377103715925454,9.98433266199858,25.0337324544899
3.62,0.00632226840824138,-0.008161075283530914,0.00471856937160935,0.03318463312945727,0.09192532034744048,9.969442035139439,25.033824281520356
3.63,0.007667959891897144,-0.006834524459518633,0.004009356189395469,-0.002894540062579505,0.05622287513960543,9.980438359243042,25.033916095197522
3.64,0.008953918703498754,-0.005747490479763043,0.003278339569694936,0.01312625082262344,0.038274680617649354,9.987814856148594,25.03400789548515
3.65,0.00947155154677874,-0.0037891402958257154,0.0045440123208551385,-0.0014934818950512302,0.016179406097689933,9.939296695360746,25.034099682346998
3.66,0.009168396213612907,-0.004261256004460664,0.005243109248044965,0.029094970999149792,0.03714410350486827,10.0734188506568,25.034191455746832
3.67,0.00873691901253515,-0.005162314134095164,0.004571626630681153,0.060701937752509816,0.043691748591866426,10.079952895858643,25.03428321564842
3.68,0.006683194790543548,-0.0050189875803965806,0.0025086046317607906,0.02967403588162729,0.039804363517593845,9.922484328326005,25.034374962015537
3.69,0.007046480653849934,-0.004175008905068678,0.004924242178963617,0.022191454128009793,0.05874943449667206,10.018906770743797,25.034466694811965
3.7,0.009784877947623035,-0.006380344137162209,0.002732526274595556,-0.005318285295133478,0.02584515594323178,9.991438346738521,25.034558414001488
3.71,0.007711475363515589,-0.005857156183863196,0.004086887587974011,0.022745918578351183,0.04795063971352208,9.993569828565036,25.034650119547898
3.72,0.009360416574508042,-0.0065057785950048234,0.004387237918983216,-0.04403481264172938,0.06042676348979169,9.969521377872399,25.034741811414985
3.73,0.006813647420678473,-0.005369555810738662,0.0040034194052042,0.029102585990943373,0.03731832479355489,9.995640669104136,25.03483348956656
3.74,0.0071002239940585795,-0.006330161107044794,0.0037974066788332562,0.06646630697233115,0.049289071764383525,9.99100480588374,25.03492515396642
3.75,0.0076758138447954845,-0.003520122260825243,0.0038917093974613326,0.019115459576967923,0.0078858195376817,10.045129098296911,25.035016804578387
3.76,0.007707324667787195,-0.008936431340654197,0.003016371912822575,0.031365001303667844,0.0725577988564923,9.897036080208757,25.03510844136627
3.77,0.007684311890652377,-0.0069601937466473,0.005519878352715577,-0.006235550954273299,0.02223289567185066,10.041074617086704,25.0352000642939
3.78,0.007802074669524538,-0.0041961780509544465,0.004067875097455405,0.03312363261768035,0.06873742691526165,9.966603641691519,25.035291673325098
3.79,0.008044673403705892,-0.006124315026797502,0.004004175876783605,0.04637562631574791,0.050529838107454324,10.062875074140816,25.035383268423708
3.8,0.01006255400365983,-0.009247455017451705,0.0017982996811174534,0.009508412005879452,0.07206377452966613,9.990373459693998,25.03547484955356
3.81,0.007348195002732663,-0.005979660965287403,0.004759114867240414,0.043755467333454263,0.07490929876022101,10.051275734160466,25.035566416678503
3.82,0.00856770463763297,-0.006537944278032799,0.005120948062565939,0.006873035956411195,0.0565560675408376,10.02414736521276,25.03565796976239
3.83,0.009236234483783277,-0.0057423190362198085,0.005058923329735525,0.04482301527273624,0.0863417106026968,10.009526361828936,25.035749508769072
3.84,0.008327174316118555,-0.006786076237496037,0.004767598522900005,-0.054169755228837,0.08056395910239705,9.95906464648147,25.035841033662418
3.85,0.008132735747094413,-0.005998124214543718,0.005620248929408532,0.002596972684570149,0.05463169675362388,9.959734608541899,25.03593254440629
3.86,0.005058953445751897,-0.007984757838223397,0.002694222530988193,0.012721892696214996,0.11819404672580375,9.995099823002242,25.03602404096456
3.87,0.007564087222917433,-0.0063564514376724425,0.0023419417874496478,0.024523189872393894,0.12383246548477903,10.032706823008283,25.036115523301113
3.88,0.006817810361227009,-0.007205178349932999,0.006703166501283482,-0.01779849922973185,0.06450956429143694,10.020488165859497,25.036206991379828
3.89,0.010162090337296576,-0.006576449184758509,0.003600058380662521,0.044561193998218854,0.09186655953786638,9.916466924208493,25.036298445164594
3.9,0.006620955203374047,-0.008671382578515373,0.003871431794950624,-0.024139336565885298,0.05591240176681914,9.972614013998793,25.03638988461931
3.91,0.006802577620107169,-0.0061187907443268135,0.0022397735660521748,-0.10945594677271925,0.037555832342981016,10.004987660560394,25.036481309707877
3.92,0.007085630650027691,-0.005791922066576037,0.004402830557562331,-0.014211740484343177,0.029958738857862446,10.006430067993113,25.0365727203942
3.93,0.008500966350490418,-0.007848684577819853,0.004940154303149118,0.01183944525756391,0.04475243080896677,10.048999002319157,25.036664116642193
3.94,0.0070397459640777794,-0.005113998919549771,0.003988297455719988,0.003278232476384285,0.033470767250223334,9.969118005684804,25.036755498415772
3.95,0.006348335001106463,-0.006442676786413663,0.004401900116270145,-0.00484229409775985,0.08904892829904873,9.978745161307419,25.036846865678864
3.96,0.00873555845656952,-0.006197383056422186,0.005684956779661158,0.019423184519901035,0.06052074348040074,10.068886655024148,25.036938218395395
3.97,0.009209012925183871,-0.006359315762959654,0.004825133993350639,0.013254343909817086,0.038322815296075924,10.02866702492047,25.037029556529305
3.98,0.010320552182225825,-0.0032553215589037625,0.0026492001310952527,0.024647459726879102,0.046756841655717175,9.967855337461438,25.03712088004453
3.99,0.0068881602666114195,-0.003921113698572609,0.0028358908440785993,0.01762785573679712,0.05965157494942004,9.956573597064397,25.03721218890502
4.0,0.006412950640049986,-0.006680671782978665,0.004462249380422044,0.009182429969718384,0.040037348855406205,9.9566039346604,25.037303483074727
4.01,0.007877123952066684,-0.006910789068567829,0.00325836629210304,-0.009016690301649054,0.09379487455779216,10.043761168002817,25.03739476251761
4.02,0.007145195522704749,-0.0072313134801225195,0.006509796165003669,0.029949363060221026,0.06541167092257943,10.024168710507363,25.037486027197634
4.03,0.008357013285422666,-0.0047585373238333666,0.003462014785069184,0.004506137444340049,0.02693172686599486,9.976127139236722,25.037577277078768
4.04,0.0077768519873767416,-0.006998975573918497,0.001083120831588878,-0.01666862776673113,0.09711120414581721,10.039557303395853,25.037668512124988
4.05,0.006346388867782561,-0.008534866151972553,0.0015252378442532316,-0.03084952689980476,0.05936810123165357,9.99221977143191,25.037759732300273
4.06,0.006565569230842277,-0.004145062048865717,0.00395112021552521,-0.0031062161790205043,0.04286395106933763,10.0500853319298,25.037850937568617
4.07,0.00954867651478541,-0.005424624392338775,0.004860814708286676,0.0009796038937909407,0.06392554052883564,10.012279462596265,25.03794212789401
4.08,0.00691892360563451,-0.005266468664130261,0.0048015856574817805,-0.029286305248830597,0.060912653539534754,10.039097338297179,25.03803330324045
4.09,0.007308023249319569,-0.005216643481137367,0.004622806534432316,0.04572752956442117,0.025734330903855587,9.95650796040356,25.038124463571947
4.1,0.007340536854643901,-0.007571875805179393,0.0026974588349119007,0.0034108374012456573,0.08893040212058094,10.016610286537077,25.038215608852507
4.11,0.008103806650305754,-0.00554218618369496,0.003128221586496294,0.02195568228239416,0.01978617741461735,9.986799600503359,25.038306739046153
4.12,0.008031902409591318,-0.005201248149406121,0.004680009786131831,-0.06433656917378705,0.05388348462111315,9.935848177893014,25.0383978541169
4.13,0.009862256144146986,-0.00421222683492274,0.0028985794239678015,0.04152665105521433,0.10140815110145016,10.009603791745976,25.038488954028786
4.14,0.010020303451445627,-0.006743367106378001,0.00514936009369987,-0.043830393230337904,0.06839310430956894,10.064595441870749,25.03858003874584
4.15,0.008081583951261307,-0.006577009129839754,0.002011533454247574,0.01581886499060782,0.09105270173374576,9.98957791002572,25.03867110823211
4.16,0.007794122587740382,-0.008183136529427853,0.00506402915942705,-0.024589501435001507,0.0558890137434458,9.943448628641896,25.038762162451636
4.17,0.009820151188567099,-0.007115675385015367,0.004332167816771198,0.06946945683941834,0.06178335130145379,10.032839934539743,25.038853201368475
4.18,0.00712953017359043,-0.006879878622191506,0.0048519441742519084,-0.012298455851886197,0.01466673164396793,10.050729274581787,25.038944224946682
4.19,0.007953754085787905,-0.003564492741296584,0.003469544273426787,-0.03217620843829895,0.06764063537993875,10.019281913962221,25.03903523315033
4.2,0.009199203598969388,-0.005863621221859105,0.004875355810718657,0.003765339110366506,0.03590479138689842,10.000314968415159,25.039126225943484
4.21,0.007463410811204064,-0.006069382372572216,0.003872951232771172,-0.026954724781271408,0.08053012539165025,10.023392701679942,25.039217203290224
4.22,0.006996731462185056,-0.005073085851585547,0.004715273906136201,0.0009047270070630846,0.04195930879253913,10.072537372793024,25.039308165154633
4.23,0.00871226563388668,-0.003848248084515298,0.005594279281359934,-0.03751511958460008,0.014623983287896401,10.002479008619902,25.039399111500803
4.24,0.007550066372181038,-0.00547772675419215,0.003314039241815966,-0.0061946197971271925,0.08860545873312269,10.025778926558292,25.039490042292826
4.25,0.008028026379337467,-0.006839649228766411,0.005782077340049657,0.002432567609461191,0.07188260791894524,10.020532503943988,25.039580957494806
4.26,0.008436437780411556,-0.006305240779346191,0.005312980429042015,0.06465350160545852,0.06496732493387215,9.983308731754255,25.03967185707085
4.27,0.005395261508245507,-0.008819743632811405,0.004875422520741752,0.007501832994846325,-0.015449873571566769,10.004058478674548,25.039762740985076
4.28,0.008072562137740841,-0.005649375179634935,0.0025409642863495965,0.03433627413317964,0.07473430532837179,10.01465699339666,25.039853609201597
4.29,0.00797211954697956,-0.0031950868254381213,0.004906619581775449,0.021023974667114826,0.08876433325657604,10.05071066903354,25.03994446168455
4.3,0.008203647854171374,-0.006614675474146913,0.0035659698629436666,0.014970477008683758,0.04902202983364463,9.931070496302086,25.040035298398056
4.31,0.005444962532959979,-0.0056393034107103755,0.004930031419330039,0.03089200281023187,0.07229882038090928,10.009988303600505,25.04012611930626
4.32,0.006109256807395262,-0.006925983649229543,0.0027267889045432354,-0.019094744855827118,0.08489740609353555,9.996871634373498,25.040216924373315
4.33,0.006841578566229484,-0.00592512572244934,0.001707157629512678,0.000514136668620482,0.05630546950328917,10.019498454981294,25.040307713563358
4.34,0.008737124526028477,-0.004944602902092845,0.0037237871531593963,-0.032912160330903856,0.07362460213340567,9.982034772582143,25.04039848684056
4.35,0.005023149788018551,-0.0073949860764033455,0.005356192127512966,-0.019027311206974668,0.08265987133161695,9.973262289244941,25.040489244169073
4.36,0.004666406863125713,-0.006486532777070927,0.002701999143686015,0.02805007203031397,0.060711418291849326,9.952358344036156,25.040579985513077
4.37,0.008965484361901805,-0.006945159533000846,0.0044443494228091724,0.04248107554939499,0.06656025436337783,10.017715227708475,25.040670710836746
4.38,0.008678552503002911,-0.003429283824377972,0.0037767638619570928,0.031764069317542776,0.09985133084771634,10.011536060678916,25.04076142010426
4.39,0.008451253243547134,-0.00807907767077841,0.005309454919623119,0.020065419674882047,0.06826635605728791,9.994131433385546,25.040852113279815
4.4,0.007087389382314363,-0.006785055829722844,0.003975527425665868,-0.04595628908685433,0.06389096765491782,10.049229210580625,25.0409427903276
4.41,0.00612453878559218,-0.005679721959499487,0.005064212900217512,0.0190467889007297,0.027985300652659615,10.040223888180636,25.041033451211817
4.42,0.00835152058819675,-0.008224456589850215,0.0038638097762373745,-0.007737295555690207,-0.000703574429860146,10.03767612208584,25.04112409589668
4.43,0.008890434683575388,-0.00862918427235227,0.002817757384800515,-0.02681461872279338,0.10773354444730146,10.041831948819116,25.041214724346403
4.44,0.009051852324897825,-0.005621866392123799,0.004453168740339429,-0.005287178209894797,0.07073522568112495,10.082668594100962,25.041305336525205
4.45,0.010231393769147973,-0.005344026110091316,0.0047236768114764975,0.03154701113510955,0.06454275069396848,10.097556127814599,25.04139593239731
4.46,0.011252894632661992,-0.006299326381326687,0.0031223289600196555,0.0050742303286946564,0.07416396492860741,9.975144377950103,25.041486511926962
4.47,0.008513355677896559,-0.005385412558855547,0.0034206130688591713,-0.04869476596784668,0.04981468582544607,10.006332258699791,25.041577075078393
4.48,0.006761123576534183,-0.002766217809073891,0.004359527817426825,0.01142470753229576,0.018119560690321057,10.026244778307774,25.041667621815854
4.49,0.007121257542317509,-0.004717697576808563,0.003879940333282532,-0.023364765721310302,0.0749177120630436,10.035020847450996,25.041758152103597
4.5,0.007696542264418602,-0.005212817979319709,0.002578929504945141,-0.010318472701578872,0.030886219896507198,10.054499978156276,25.041848665905885
4.51,0.008423152644700607,-0.0033218632691755473,0.004512795428417042,0.027734162828975874,0.06212848734772738,10.052092888437754,25.04193916318698
4.52,0.007548545475459843,-0.006709947392599539,0.00354862602932038,0.004044651719265414,0.04049894811454975,9.97304873394007,25.04202964391116
4.53,0.007695244786342663,-0.006528929145861581,0.005007942585182024,-0.0016871740606092867,0.0794813233834846,10.049575494883449,25.0421201080427
4.54,0.00592014907614922,-0.004793199929423012,0.0035823448223431826,0.002252106481034242,0.09184064798219896,9.998246578191933,25.04221055554589
4.55,0.008452337342834447,-0.007577783074281209,0.00546149417353438,-0.021901140559675625,0.021296379453589108,9.988903521205058,25.04230098638502
4.56,0.009494761952206247,-0.004656573263949897,0.002333769746627107,-0.03651292282348965,0.11413947567332558,10.019160685641898,25.04239140052439
4.57,0.008994945285279263,-0.0054332028773100075,0.0022342016281541753,-0.001321645474929349,0.10608919934567607,9.963430644192911,25.042481797928307
4.58,0.007970843139475022,-0.005489651715353433,0.004611682801205466,-0.002567485076872311,0.1138640161788521,10.00049390378481,25.042572178561084
4.59,0.008212713640338628,-0.005592276016413668,0.005620972531478405,0.07495121335213582,0.07987008550436306,10.04689282907623,25.04266254238704
4.6,0.009471240691892816,-0.010013876935295842,0.0036508175896785497,0.04159364470364612,0.05791801888694504,9.989480426732941,25.042752889370497
4.61,0.0078024187669472585,-0.00845293800181776,0.004103601364055544,-0.0019164095964123965,0.030239039907218435,10.002992387736645,25.04284321947579
4.62,0.009498509326892607,-0.007521195003426826,0.00437004103255886,0.001414618522651176,0.10517172986893769,10.024088022743278,25.042933532667263
4.63,0.006901011827244275,-0.0069406768331515475,0.005625132997587039,0.07242532673360617,-0.002594084734030569,9.96615780159904,25.043023828909252
4.64,0.00734893061586581,-0.005352902515385126,0.001941660072332914,-0.00911355982996099,0.09966299499239772,10.001596729590931,25.04311410816612
4.65,0.010234781073673857,-0.005156286575170902,0.003799250173084712,-0.04248800506953754,0.05100966578782902,9.966780055751842,25.043204370402215
4.66,0.008690655811999874,-0.007973747200526935,0.005300783815927923,-0.04026197304449416,0.11384032889430917,9.993851716266217,25.043294615581914
4.67,0.007611218269404284,-0.0062856973210678084,0.0034591788235379672,0.006741385884075409,0.05527037227929356,9.997055340012528,25.043384843669582
4.68,0.0073032183167052985,-0.005027461143720228,0.004281497535114645,-0.023673030968629008,0.049175381083193866,10.015894735312772,25.0434750546296
4.69,0.008782097769683648,-0.0060123125652798,0.004564519792184899,0.04410585936191861,0.08440134782351406,9.966093059281436,25.043565248426354
4.7,0.007497381507289954,-0.0028783754220266322,0.0022752765419264513,0.031202772547098148,0.07118541432276632,9.985112127980367,25.04365542502424
4.71,0.009513124788275582,-0.004084929568990641,0.003062625313437847,0.007009712885597065,0.07389719114219714,10.00660889433033,25.043745584387658
4.72,0.010675128332667167,-0.0046063136038765546,0.005068252907505203,0.015954100024701635,0.03371052152613357,10.068873825415887,25.043835726481007
4.73,0.008033626624431052,-0.006304116621506147,0.003769650290256431,-0.05633174186934676,0.07405298425318795,10.01683963081633,25.043925851268707
4.74,0.00846863671558342,-0.0040383392149525455,0.004199445639647562,0.020835101803551432,0.038038780153848636,10.042517504906657,25.04401595871518
4.75,0.006906267652235252,-0.004845802112661029,0.005013265821034271,-0.0016926204503493652,0.024659131706041816,9.970069267575168,25.044106048784844
4.76,0.008785591434137343,-0.0049563015308650244,0.003701979056826411,0.005287952065127643,0.01317054734307823,10.062719391470157,25.044196121442145
4.77,0.006885212999443305,-0.0072154708028970916,0.002200990426696356,0.03301443841627909,0.10902479098382792,10.060188751651484,25.04428617665151
4.78,0.00828433833385514,-0.006116828296517231,0.0035160135250173205,-0.009010393944047781,0.03353192504579504,9.919414474170745,25.044376214377397
4.79,0.004453257410785916,-0.0077462444575718365,0.005232924716543484,-0.010640223746788961,0.10731142996340665,9.978611978960089,25.04446623458426
4.8,0.007202448799924243,-0.005495171651280422,0.002470246027027218,-0.004750829845912672,0.04234518302567926,10.017103044915446,25.044556237236556
4.81,0.009726446578831077,-0.006201638724076547,0.004319044436131889,0.04012934052642932,0.014775252709593518,9.96197436858782,25.044646222298756
4.82,0.010790935750258022,-0.003876983859174835,0.0036627778165842367,0.046145401178230655,0.07839902248465067,9.996803022036849,25.044736189735332
4.83,0.007288135778155569,-0.006455763016127345,0.0045608880733241895,0.05275928285779231,0.01965234118108266,10.034902031718111,25.044826139510768
4.84,0.007873731038898955,-0.00655334180300486,0.0056138993757799465,-0.0005003432659199747,0.07485637740836099,9.92871433241199,25.044916071589558
4.85,0.007862948129866596,-0.002780575269747753,0.0040998168201273905,-0.006274300796830477,0.07850345804901838,10.003076633011364,25.045005985936193
4.86,0.010142382073069674,-0.005499752808205123,0.005059256630574393,0.039205733184025544,0.092083690199942,9.97442916399294,25.045095882515174
4.87,0.007130466738178731,-0.0071952629116223766,0.004505676550516487,0.026266579540010413,0.030078595597609253,10.00683169411695,25.04518576129102
4.88,0.009186263890958378,-0.005943640897199352,0.002584967331407933,0.021230647479228627,0.034485227924703696,10.030284837938058,25.04527562222824
4.89,0.006367689960452808,-0.007997990963060739,0.0020556156757666807,-0.01361387238455709,0.04161361923245424,10.02771603147327,25.04536546529136
4.9,0.008131382431336506,-0.004424938509608765,0.00398524263438271,-0.02353238831050256,0.033041756857833324,10.038420193280961,25.045455290444917
4.91,0.0052875022911945775,-0.006267064644468369,0.003820921103704132,0.004803514557748018,0.017157804131507727,10.032483724108422,25.04554509765344
4.92,0.010515198500270526,-0.008039993078087379,0.003570254637140885,-0.010651236967303346,0.018588776492278955,9.924869119642826,25.045634886881484
4.93,0.010047023216653477,-0.005370030322114833,0.004619644380868067,0.02864922891097226,0.03379544414887599,9.965300167318446,25.045724658093597
4.94,0.008137501324428654,-0.00553807904587983,0.00485537048330639,0.020728884911579745,0.08043531469664789,9.97991590404497,25.045814411254337
4.95,0.007028616417328681,-0.004770717989528521,0.0024896966814259066,0.028926019788179342,0.11541015179116756,10.048196424671074,25.045904146328276
4.96,0.008394041567397845,-0.005749762651399142,0.0033220776029886812,0.03727851285590867,0.06666876541971083,9.990904217423074,25.045993863279982
4.97,0.007972777669609224,-0.0068715562137317745,0.0028211285404520815,-0.0001297815869026795,0.07021391490255732,9.964862817323041,25.046083562074042
4.98,0.007575662310063627,-0.007545584089520326,0.004355077210502573,-0.02153465722819379,0.017896145996487617,10.012629171913325,25.04617324267504
4.99,0.006619897407017164,-0.0050032321678125284,0.002700373025278298,0.004038417671866109,0.03959730736687882,10.03135917457215,25.04626290504757
5.0,0.007320446101302793,-0.00687444477150125,0.005457661401762323,-0.02979121097784925,0.03855777727503727,10.030080047517199,25.046352549156243
5.01,0.00839634793473991,-0.006296427323562152,0.0045485913851766955,0.029411273403784133,0.03559281632415237,10.012528563351783,25.04644217496566
5.02,0.005471369183204375,-0.0060603870254972705,0.0061972655955852395,-0.021817417223370945,0.05234764305983547,10.00970599661285,25.046531782440443
5.03,0.008158815807683207,-0.005904921563162931,0.004602941217606416,0.018357785964478034,0.06676480237780705,10.013844394897287,25.046621371545218
5.04,0.009074726291977215,-0.008796453370045804,0.0021494408700298705,-0.030808150113210156,0.06874489590060992,10.02273729123828,25.04671094224461
5.05,0.008252349549303376,-0.007000827186656513,0.005443227788441906,0.022214835902613975,0.03772658497481514,10.034401939730675,25.046800494503263
5.06,0.007621790732137731,-0.008708343029998365,0.002605184691471603,-0.03797024585330475,0.04581024168676662,9.996286589366585,25.046890028285823
5.07,0.0047003887764433105,-0.006327775752196078,0.0037927774600091785,-0.03632547187509897,0.04973324167786547,10.012190589259033,25.04697954355694
5.08,0.007490644748261723,-0.004489569345358366,0.005318371820168363,-0.05322636545500007,0.046821875254416306,9.949154370167573,25.04706904028128
5.09,0.007795533891972667,-0.008988571134467598,0.0046790097385414845,0.06279296352950833,0.06382290407415153,10.00912973708259,25.047158518423505
5.1,0.008666432274210292,-0.005566851801780277,0.005079627724238927,0.008509002349774225,0.07479972765682329,10.036404155194704,25.047247977948295
5.11,0.006602206284246752,-0.0031877424593408058,0.002944629471543945,-0.04535981786443989,0.09455812272794918,10.04496960940855,25.047337418820334
5.12,0.008899067512641025,-0.008362286772178693,0.002976708844002944,-0.00044359832572625924,0.054548746660870395,9.905814854508028,25.047426841004306
5.13,0.009819642376070404,-0.00636525975220119,0.004923914865646078,-0.035772934866047656,0.07240092973536838,10.043522958921915,25.047516244464916
5.14,0.008284346466463095,-0.006146941418400242,0.005500235357425959,0.023411907663503918,0.05575312815820788,10.066731126418189,25.047605629166863
5.15,0.00771600941041772,-0.008493033350588859,0.0031164358988531246,0.031702066691014164,0.04684601027514264,10.074930740862508,25.047694995074863
5.16,0.008661430074442034,-0.005446287251092489,0.002276235924741018,-0.03133821704119801,0.016661623824951205,9.991627827612033,25.047784342153633
5.17,0.007130788976710159,-0.0068144098888831455,0.0035979834464743526,-0.02121240534061755,0.04765506479436681,10.030642102284835,25.0478736703679
5.18,0.006348903693678139,-0.00687971955136727,0.00319852846621452,0.0005274128518596461,0.057640840506645995,10.006985274118684,25.047962979682403
5.19,0.008925839911714303,-0.004867230164613659,0.0038396084961023025,-0.0678229647892436,0.015445855778294104,9.992773239506258,25.04805227006188
5.2,0.007529552244955122,-0.005804105963145241,0.0031017673817988678,-0.023741064040432122,0.05138310035990869,10.050035308147457,25.048141541471082
5.21,0.006623801501399071,-0.007316309692496004,0.0033017055196313976,-0.0006866849217959216,0.020852439903756383,9.97972400680753,25.048230793874765
5.22,0.0066038314402492755,-0.005773116617311976,0.00480268724116208,0.052864077269767606,0.10078298120085241,10.024171277940763,25.048320027237697
5.23,0.00609548203904211,-0.005964819804297554,0.0037580706252070308,-0.0453276921208599,0.06646368818291618,10.017381507172821,25.048409241524645
5.24,0.008409810422644163,-0.0060181142753450234,0.002401040792075206,0.0023130062517072057,0.041912840442937915,9.993499006596167,25.048498436700392
5.25,0.006485132841371402,-0.005958806994181038,0.005131659011720061,-0.017644647215612163,0.025811079165947305,10.048814810734983,25.048587612729722
5.26,0.005342975154748397,-0.0055159827882777885,0.005308584205816407,0.028016213850890856,0.049895125607667304,10.016372905867767,25.048676769577433
5.27,0.007816368948552544,-0.005229716505562983,0.0032266240110124175,0.013237826711716052,0.12347388962612972,10.033025397789302,25.048765907208328
5.28,0.007856760560867747,-0.008269278925631413,0.0014212223607392386,0.026589888561843137,0.05893661836594135,9.991201633330872,25.048855025587216
5.29,0.00913131896147033,-0.007378992898814218,0.0034989193704962262,0.04302810757984845,0.07613676929185315,9.978557857470259,25.04894412467891
5.3,0.006336269296075768,-0.007973957584317426,0.003808778529895922,0.015162796630195144,0.08131996047578273,9.938036609398628,25.049033204448243
5.31,0.007124507367037225,-0.005470840602807422,0.004497792260877551,-0.026124803777540014,0.06803056512911736,9.94352043827748,25.04912226486004
5.32,0.008385019575589528,-0.005665958892700179,0.005735545025425075,-0.051437134976558815,0.050300221268960665,10.020832616291036,25.049211305879144
5.33,0.006718887477146137,-0.006076908812684085,0.005245958802571548,0.017680311207033547,0.1021803374753609,10.007735644412463,25.049300327470405
5.34,0.009517447771205643,-0.007990469109082403,0.003656409014178543,-0.009632785603815652,0.02126708158765303,9.992795116274333,25.04938932959868
5.35,0.009629745315040713,-0.005288689252721308,0.00421478933462775,0.022772679239901818,0.0789493716976393,10.01357100821531,25.04947831222883
5.36,0.007738778367878412,-0.006537321295990843,0.004317040969399357,0.0179602480588415,0.09361188965408855,10.007511898979837,25.04956727532572
5.37,0.0076971510500186205,-0.0060596100694622216,0.004086458576726541,0.04256636513250704,0.03752703849961829,10.002757886574702,25.049656218854242
5.38,0.007186314165807802,-0.005255018876565987,0.0072056691132569625,-0.01287819689581261,0.08006889368869222,9.972639697709072,25.04974514277927
5.39,0.00586761603280871,-0.005546382466134028,0.003163790902519204,-0.008106164265104727,0.005802208256965688,10.024123234738234,25.049834047065705
5.4,0.0086928830930231,-0.005934819537340995,0.00483804025144671,0.03895050827176449,0.08337297263640268,10.031107283631032,25.04992293167845
5.41,0.009410607891810535,-0.005730610435124546,0.005245257517255596,0.02672881187939845,0.07746457719622213,10.024763859920194,25.050011796582407
5.42,0.005186842527453587,-0.003773366782917568,0.004412568367081574,0.02191420372885879,0.039514050362588336,9.998697009807364,25.050100641742503
5.43,0.009293412026894219,-0.00770782604277813,0.0030861531302341307,0.0036540978212553873,0.0484734061164136,9.954981291646885,25.05018946712366
5.44,0.00817512595297373,-0.006023853045072448,0.0043113754468109885,-0.035503469606818126,0.06431248122065725,10.0340880290791,25.050278272690804
5.45,0.00930141819311596,-0.008471308441423988,0.005071200978889041,0.0018270572747911959,0.13528816213191747,9.97567080223503,25.050367058408888
5.46,0.008009938291949513,-0.006285294605574367,0.0023817732421766206,0.014895064261970941,0.09402682309818436,10.039204867877297,25.050455824242853
5.47,0.008603658402052239,-0.009379750991443453,0.004713233412362584,0.02119880585323855,0.08784026126757906,10.006875819125046,25.05054457015766
5.48,0.00620947299743241,-0.005925158922335537,0.0038689142789392877,0.05143325234461651,0.09380160497791931,9.977831916777262,25.050633296118267
5.49,0.00940344577675266,-0.006250117236619447,0.003236447582739768,0.0111938381290316,0.014548844373248118,10.05380044714354,25.05072200208965
5.5,0.007392076764834557,-0.0042179641237434715,0.004589926666098983,0.008273743230952032,0.09563878963387634,10.001603759847429,25.050810688036794
5.51,0.007537244022172207,-0.006331024987950319,0.0022761052003560083,-0.054141224962959325,0.13171944114995973,10.00929803350999,25.05089935392468
5.52,0.00846616904102185,-0.008463741990773653,0.004826976112419002,-0.02845945870205399,0.08995449407494487,10.070250632999816,25.05098799971831
5.53,0.008154345910989519,-0.0026582674805965085,0.0027898508909032635,-0.004526345233710403,0.05509436249964477,10.01272067951077,25.051076625382684
5.54,0.00787680549075124,-0.0034823972187077125,0.0053105286043205555,-0.031782318946563005,0.038534461411721635,10.06212482765968,25.051165230882816
5.55,0.007164545538104121,-0.0056864456002771735,0.004002199292056596,-0.002419393136985442,0.0344215546152941,9.990637859316374,25.051253816183724
5.56,0.008338347040872988,-0.006978152610378762,0.003901747557029192,0.03373151061990403,0.0025480372165016946,10.013251996715322,25.051342381250436
5.57,0.006082337149667944,-0.005810827167384685,0.004495022740764016,0.07541336235127384,0.11474290356409281,10.023445688986197,25.05143092604799
5.58,0.00772709670482734,-0.008261071246818703,0.005087385049136609,0.041040078301319415,0.09446428597429568,10.001075935888348,25.05151945054143
5.59,0.008437430045591363,-0.007016421136781368,0.0036913395084781295,0.029290614100929206,0.10795347452604598,9.964662808220027,25.051607954695804
5.6,0.006199196716661794,-0.007435574178889066,0.0034084075190071467,0.018846326324447903,0.06799446254647944,10.008404463519174,25.051696438476178
5.61,0.009474104974736181,-0.006895304747242466,0.004704235025261635,0.0019857991699614146,0.06435990923085198,10.015201510331183,25.051784901847615
5.62,0.007354020556566104,-0.005652873414807375,0.0038444649476418176,0.03510525878589535,0.07121556057036102,9.999411148970355,25.051873344775192
5.63,0.009047667920111292,-0.006748735873505982,0.002270218924997315,-0.023650843724730874,0.04464475950084293,10.013460515292127,25.051961767223997
5.64,0.006341661162363641,-0.00674462849151986,0.0026260340322541422,-0.01963532213646981,0.08435770848400939,10.01886496450153,25.052050169159116
5.65,0.008492254418815461,-0.006652075430801309,0.0066120672050290746,0.03585262260171031,0.03998621181292325,9.978509034731255,25.052138550545656
5.66,0.005914742485835442,-0.005714913549806278,0.002759251674143764,0.03562851678802995,0.0615118607866915,9.998622651875138,25.05222691134872
5.67,0.007407918391540786,-0.0058020127373232385,0.0014420914876382843,0.02250661486957189,0.07639372868208034,9.964918760424533,25.052315251533425
5.68,0.008284191340145634,-0.0033359295528161653,0.003501217871794548,0.043086153692582674,0.046381755584369515,10.05950377752774,25.0524035710649
5.69,0.008311769428166612,-0.0045651096296244415,0.003819651149970304,-0.03845965840690988,0.06676031870944871,9.999163321569968,25.052491869908273
5.7,0.00730284777376222,-0.009186030965210453,0.004705089791334471,-0.05771024029302551,0.07630297338544656,9.94353721514416,25.05258014802869
5.71,0.007864197908325323,-0.007417757391943426,0.004139256381305463,-0.007203205829010777,0.08879286337605324,9.988142048726557,25.052668405391294
5.72,0.007299583571832582,-0.006739796583561736,0.004666920271719579,-0.025565224545465587,0.08028313117573627,9.997118622383057,25.052756641961246
5.73,0.006393941106411387,-0.004533758599496738,0.002462545220569756,-0.010604990840694658,0.09357293936074103,9.967750280475052,25.052844857703715
5.74,0.007204758309973683,-0.003307875328306792,0.005240090237806664,-0.01224141766411266,0.08213366630995357,9.965680884623694,25.052933052583867
5.75,0.008117124790994528,-0.007316742301701703,0.0034178004626301177,0.0548072147920858,0.05180142041813035,10.033088076205194,25.053021226566887
5.76,0.008087930377502836,-0.005947467474724562,0.0039000419774114408,0.02771985534067626,0.05360908812905201,9.98977481242091,25.053109379617972
5.77,0.007963000983098979,-0.00630012515358716,0.0024138233907959857,0.0002578631413741174,0.07782830892973049,9.973537604993252,25.05319751170231
5.78,0.007380187109407001,-0.004719526324418415,0.002494832272693771,-0.034550957661933106,0.09943082620910143,9.981587837746146,25.053285622785115
5.79,0.007772533386152866,-0.007147655500279182,0.004122485472337923,0.012169316460852087,0.0522114321508251,10.00005150044085,25.0533737128316
5.8,0.007533640182719819,-0.003931648869035464,0.0045572414696092795,0.04445849164162934,0.05548841274278932,9.993684763897027,25.053461781806988
5.81,0.006425836201067347,-0.005060280783740823,0.003147882958111731,-0.006544669088246779,0.04377631426582983,9.983660297835998,25.053549829676513
5.82,0.00730760435434696,-0.0055606533718500295,0.0034590778382968517,-0.013436605887476399,0.10444303316088122,10.027870842465932,25.05363785640541
5.83,0.009071426979587547,-0.007084314086118754,0.0033191587921495005,-0.00880909646579017,0.08535950776932702,9.954312998355602,25.05372586195893
5.84,0.00721235492774227,-0.006791894247697054,0.005209110711102595,0.042817150551470104,0.09413751155515382,10.076665888448755,25.053813846302337
5.85,0.008754555552332365,-0.0036060784643831005,0.00649440862428918,0.0318933431723597,0.07011571722822481,10.04641969231578,25.053901809400884
5.86,0.0067631395616811925,-0.005901413221741795,0.002706179651692224,-0.017227482941207906,0.04680148823233979,10.003047365809488,25.053989751219852
5.87,0.00706687288670208,-0.006882115514357938,0.002837129638447898,0.04261324592701178,0.033908556122097436,9.974317225677769,25.05407767172452
5.88,0.006737735272521904,-0.0062019981299283565,0.0026616097397749523,0.008642942346210505,0.07796400391812422,9.982604621569916,25.054165570880183
5.89,0.00901055235096516,-0.00728485495238452,0.007090525867106031,0.021659338583157994,0.0961883315774113,10.043517974191472,25.054253448652133
5.9,0.007458338658842726,-0.005899175301316127,0.0025751246970873616,0.012145583055847252,0.05533641303110861,10.060643156340715,25.054341305005682
5.91,0.010047310109753167,-0.004432699046875917,0.004326607457809724,0.00200891983474353,0.08420307934922572,10.067768207333938,25.054429139906144
5.92,0.006383836941464521,-0.005705066371185532,0.00276642584938102,0.026604842388898018,0.029954595478603626,9.965454470998134,25.054516953318846
5.93,0.009754826316168034,-0.004867127375405558,0.00410498294233651,-0.0073820826018930145,0.07773912545683029,10.019336347739006,25.054604745209115
5.94,0.0050763492041032135,-0.007376782370122643,0.00475653724475986,0.0677592619639102,0.07005472605731938,9.994625081063978,25.054692515542296
5.95,0.009455460430067788,-0.004447162263911016,0.002248785697534399,-0.032453463093296706,0.09092539658112564,10.004909240665334,25.05478026428374
5.96,0.008361862768175484,-0.004578278696923899,0.00217583087785953,-0.04363739304698195,0.058496446881627535,9.973239580443934,25.0548679913988
5.97,0.007990514581552116,-0.005616620642368161,0.0036691589566685916,-0.011222325310494463,0.058046525340394645,9.976137502453279,25.054955696852847
5.98,0.0057774057735185584,-0.006455977354103221,0.0036399640267194737,-0.013081925068690693,0.03703779464482705,9.982149945717751,25.055043380611256
5.99,0.007822313114542696,-0.006788859995595097,0.003512686631434386,-0.028693815513946803,0.04435574219111255,9.976472849863232,25.05513104263941
6.0,0.007952352461183627,-0.005380563553042405,0.0036651305608576662,0.019144323479275357,0.06349555149884813,10.043334087199703,25.0552186829027
6.01,0.007508421285958398,-0.005870704346443759,0.0018869924815153004,0.05814790171312808,0.07683825038980951,10.019489984788265,25.05530630136653
6.02,0.00857244215267175,-0.006000788335972142,0.004043662879257318,0.02375691816884681,0.07093763687606043,10.00670957905365,25.05539389799631
6.03,0.009152881169113357,-0.008733941742067548,0.00182878274315514,0.0006670258095780425,0.029266391006263097,10.031948625737753,25.055481472757453
6.04,0.008328564614388224,-0.006009963597179922,0.0041871946375111255,0.0006079557042500958,0.09845968128013796,10.03438754891473,25.05556902561539
6.05,0.007445447509793065,-0.005069904856064096,0.005025902727290232,-0.017231748668279322,0.09278049931316512,9.923159457391884,25.055656556535556
6.06,0.008580778752741833,-0.0063651598417664166,0.0016815416736241568,0.05945357234873438,0.02039668222300936,10.020946789733467,25.055744065483395
6.07,0.008923083449644554,-0.00428957986729537,0.004709014253182378,0.014369284984425839,0.08933722213156899,9.994584902166258,25.05583155242436
6.08,0.006944429087158992,-0.0050566878488651395,0.00494658267875759,-0.06281875415586166,0.04870908848134441,9.99809000632001,25.055919017323912
6.09,0.009870579497358903,-0.007226553893919141,0.003750899957001448,-0.059928960498519104,0.059143555050900645,9.970675952362733,25.056006460147525
6.1,0.008896726461372146,-0.00591962589998658,0.0027709396377435976,0.0210193530928036,0.05098291739685759,10.06785823633663,25.05609388086067
6.11,0.008497539542032044,-0.005189873712658766,0.004096759185964102,-0.00613855970521446,0.06992410545755345,9.998284911793295,25.05618127942884
6.12,0.008263501912615934,-0.006362188262360022,0.005626106829287665,-0.04715124565381225,0.05214118585615011,10.029212430117486,25.056268655817533
6.13,0.006919169379544788,-0.006822249067869291,0.004012084064880278,0.01960649416994887,0.04966165334081969,9.958487004258687,25.05635600999225
6.14,0.009054744833241072,-0.008096322438132351,0.0025586735752580166,0.020880557631998586,0.06961877439297767,10.032092347323282,25.056443341918506
6.15,0.005554725790718339,-0.005954226684645421,0.002769863601072802,-0.006676565857038675,0.010710655801332361,10.022183525858454,25.056530651561825
6.16,0.0075385398679785,-0.005074070534151609,0.0032943030071388687,0.001272517047795478,0.09684029565520313,10.006022657038285,25.056617938887737
6.17,0.008277538427292038,-0.006419073070852411,0.004739325746606081,0.00018279332431495217,0.06955627521224744,9.986001405798362,25.056705203861785
6.18,0.008570153680817611,-0.0069687071746444545,0.0038144830712595022,-0.017807271633707083,0.05513208254253761,9.97565019813536,25.056792446449517
6.19,0.009252492077264593,-0.005449272381644265,0.002463341736473755,-0.005326063963978962,0.11218086800856358,10.038467479255242,25.05687966661649
6.2,0.00878674167340566,-0.0075184548714107334,0.005553764376957107,0.0107879382419895,0.10132011330673771,9.978706524863787,25.05696686432827
6.21,0.00922891860780923,-0.005594160333714239,0.004172956127779813,0.07625999609639986,0.04497907950832762,10.069224988656293,25.057054039550437
6.22,0.007749161292767096,-0.005050066468039961,0.003592144013591732,0.061528891433389465,0.008782715409678232,10.052050148580538,25.05714119224857
6.23,0.008282683844767873,-0.0047792918868727685,0.0033820128021218514,-0.006970474213580295,0.041970033195094014,10.02189161984528,25.057228322388266
6.24,0.007260568712011166,-0.007672111673014243,0.0028290799792612103,-0.028690659742642746,0.07192906846165578,9.974997776566477,25.057315429935127
6.25,0.005805925626270197,-0.004978239695378259,0.005989805996291048,0.0068591783778545615,0.09526330221452413,10.017471773933837,25.057402514854765
6.26,0.009710394732164366,-0.008276518284077123,0.0047973401387118204,-0.009246947618434405,0.07303266110346174,9.960095832255842,25.057489577112797
6.27,0.009706527619908268,-0.006639533973034129,0.004111592173715054,-0.023619023525881022,0.04582558830580356,10.030282407875779,25.057576616674854
6.28,0.005590528339034396,-0.005626569364832702,0.002830084297621811,0.013720762614642867,0.07285781072603756,10.004226958434865,25.05766363350658
6.29,0.008239562021493818,-0.008185684091064432,0.004597144046925355,-0.02209618938007694,0.09954042422394138,9.982773809457033,25.05775062757361
6.3,0.009229415210512027,-0.007096451806401235,0.002749385160448522,0.014117968491174608,0.05473421971169498,10.023118981345108,25.05783759884161
6.31,0.005412772348940022,-0.006372978947705248,0.0033602466722902347,-0.01661780955650809,0.08734811050483737,10.04920809330675,25.05792454727624
6.32,0.006138776705182335,-0.00536577374116296,0.0035050325799488857,0.031286492474891126,0.06228665912726213,9.991179192124681,25.05801147284318
6.33,0.0067091168496257216,-0.006776401367896626,0.005178434992822578,0.08621015351578677,0.030107662746664866,10.033302545655044,25.058098375508106
6.34,0.008723524332506267,-0.006182036486097886,0.004681015520311338,0.011530346642298718,0.056122101618995786,10.011028414071488,25.058185255236715
6.35,0.006606905652335913,-0.005954681858982157,0.004162054563535118,-0.013759659100839067,0.06983070521086693,10.01524158355072,25.058272111994704
6.36,0.007436196189801528,-0.005390358329659615,0.003141523199891104,0.08187639668775519,0.08785617202234529,10.021611448708043,25.058358945747788
6.37,0.008611784849331342,-0.005227397719856191,0.0007911241312332272,0.01881356799928878,0.10938020435388085,9.97404954992831,25.058445756461687
6.38,0.009428366844212142,-0.010266685591493855,0.003322346071888262,-0.003935182312853111,0.004473262824995612,10.02298396294918,25.058532544102125
6.39,0.009230417641109306,-0.006444201415353417,0.0023871954192835037,0.026992012516329003,0.02999634853742463,10.051025760576021,25.05861930863484
6.4,0.006687515525939995,-0.004562331955151133,0.001886345016396498,-0.020019599778743583,0.048284042947536215,10.00892930929984,25.05870605002558
6.41,0.009354789321154421,-0.006077142938659205,0.002688365136513323,0.04937269088279445,0.03384361109373483,10.0144231080117,25.058792768240103
6.42,0.007300261913236771,-0.007424114077542298,0.004952847720944381,0.024791932643772684,0.07379031458302558,10.024476033058134,25.05887946324417
6.43,0.008878913371715405,-0.008406825587426465,0.0035560486696287327,0.024391806665218233,0.04234091371105658,10.05911215317857,25.058966135003562
6.44,0.006964177205186868,-0.004189086044156882,0.0025148909700609366,-0.0017876819451728052,0.05104540031649265,10.048227216042038,25.059052783484052
6.45,0.009925074925622017,-0.006046612635323713,0.0027218721529819034,-0.0173702060063091,0.06684093933957258,9.98197249203215,25.059139408651443
6.46,0.007187270979188867,-0.007122266377075831,0.0025979197577829433,0.0771238744633505,0.12251547646835005,10.00157548859403,25.05922601047153
6.47,0.00811379223167645,-0.007719081770968581,0.001601597170387992,0.017142515205015973,0.05801874454132665,9.99394801637093,25.059312588910124
6.48,0.0075443882349821925,-0.008523998674985036,0.0031726230451257277,0.005135744973175977,0.05673630981377112,9.956441842962176,25.059399143933053
6.49,0.006909076533675973,-0.00721970250083614,0.00620105941174917,0.009437499646967707,0.05668894956964595,10.015093614612272,25.059485675506135
6.5,0.008067693880603485,-0.005656480587406535,0.0020459618740234758,-0.000778733332934455,0.0477836478226007,10.03310032192882,25.05957218359522
6.51,0.007215244239635694,-0.005698576318081883,0.0028730181957956928,0.017540832111252205,0.09696247439819927,10.020934552463114,25.059658668166144
6.52,0.009089675412221582,-0.007683775220261442,0.0036849972505483067,-0.004381396554454013,0.07514266873316419,9.941723578904352,25.059745129184773
6.53,0.007296738032029329,-0.005769951076865318,0.0032954609209590313,0.06465719666192357,0.06555579402577187,10.075005788612023,25.05983156661697
6.54,0.007674927647514876,-0.00633058212848918,0.003192173466869569,-0.024533551790418967,0.02657907928680619,10.016809865365257,25.059917980428615
6.55,0.008582112642196535,-0.005666256275227604,0.003902524660221516,0.012422842282999773,0.06734400368423442,10.011049638504014,25.060004370585588
6.56,0.00748344999984565,-0.004884838357272004,0.0037405823318044005,-0.01729671482779167,0.016283187765801385,10.01416401781282,25.060090737053788
6.57,0.007631963254608876,-0.005853433958156623,0.005866245351267936,-0.03693096000895143,0.019316973663315626,9.992922982449015,25.060177079799114
6.58,0.006391572550374556,-0.004922200349722503,0.0019175117226380846,0.014466569559851495,0.11353040864317618,10.036439497704121,25.060263398787484
6.59,0.008260727789874349,-0.0037948840413477773,0.004537535376914038,0.044543327613872426,0.076175677251206,10.016842519006198,25.06034969398482
6.6,0.008204750094247752,-0.006784629256324306,0.00403415192053741,0.07672050944568277,0.020833192811012993,9.991879829875383,25.060435965357048
6.61,0.007697524621515973,-0.007100367251103898,0.0036811368229776433,-0.00850859308747235,0.08289274659803299,9.973782343754044,25.06052221287012
6.62,0.008238057392751727,-0.007074103895942896,0.0031130899972468475,0.02444968822729803,0.07410334528954325,10.031130317918297,25.060608436489975
6.63,0.006367707874889391,-0.005452984963475545,0.004599855588163767,0.02540349140535294,0.10094609982571268,10.003528497186004,25.060694636182582
6.64,0.008277992533083822,-0.004648761310179867,0.0040966544007888005,0.01745153728474684,0.037249770004238555,9.974229759671436,25.060780811913908
6.65,0.008470413124838908,-0.005574627604107412,0.0038993059786399716,0.054491663538108054,0.03513382395400187,10.025625186462491,25.06086696364993
6.66,0.0073630138062444235,-0.0029001863378913246,0.0035028539221611406,0.017478083985224477,0.0907726150414436,9.952040779244829,25.06095309135664
6.67,0.007200946746655477,-0.0053923862471698504,0.004277039856824505,0.028283009776385468,0.056248253820374475,9.985906108209202,25.061039195000035
6.68,0.006314250142867607,-0.004428250443610766,0.0038963859671140833,-0.005977725352811723,0.0869027320371481,10.028502896554402,25.06112527454612
6.69,0.006666882685741136,-0.0043357022399045765,0.00468824312875577,-0.002290903740165021,0.02597814100606015,9.970909772898827,25.06121132996092
6.7,0.006482549609662503,-0.003511944023639186,0.004724677105202812,0.024137704797739853,0.022096362081676958,10.00132225637618,25.061297361210453
6.71,0.007987764661249945,-0.003773693672129509,0.004175227562212605,0.08197896382139709,0.07074085347436267,10.02885517452784,25.06138336826076
6.72,0.007966300309875161,-0.006924420162430785,0.004640035483237786,-0.030284258155989854,0.023508703627171543,10.030569505185216,25.061469351077882
6.73,0.008571923560788775,-0.005979447804154404,0.003131015010745637,-0.006923759666845736,0.09073455148378284,10.009683463603983,25.06155530962788
6.74,0.008155915824999289,-0.006097718300066993,0.002533178249392379,0.10823768356650391,0.04464819517122623,10.01755540893406,25.061641243876817
6.75,0.006233825178410977,-0.005208785269666323,0.001137922853443142,-0.022277569877624085,0.08957139029826802,10.022399596603975,25.061727153790766
6.76,0.008246492632353513,-0.006669316280855354,0.005439071267567901,-0.02428889560242982,0.05178917296482401,10.052201912752016,25.061813039335814
6.77,0.0074078381490153495,-0.005076722100047346,0.0035633947746384295,0.04209807316117365,0.021070072100561894,9.993392171400568,25.061898900478052
6.78,0.008136497784183372,-0.004968428856711928,0.003491188712042962,0.05918870268890903,0.05599217158054775,10.014172720465575,25.061984737183582
6.79,0.009195865861398086,-0.007391177027949077,0.004324052126814217,0.03535475749980231,0.02337262222364417,9.978232880082258,25.06207054941852
6.8,0.009107167667345423,-0.0050759475114935315,0.0061080893644089515,-0.005164172496499223,0.09440261135594699,10.040935691144073,25.06215633714899
6.81,0.0070838728192272075,-0.007930808951888023,0.0029062313806553688,0.026139791015612927,0.05677667143721845,10.044449431605749,25.062242100341123
6.82,0.008792531079858125,-0.00530290789202287,0.004112482325612158,-3.255692514931132e-05,0.0768562543464274,10.037488447212626,25.06232783896106
6.83,0.006652451541071445,-0.0049263857893393145,0.0026528247445844052,0.055451402025319396,0.059096061631708836,9.996699672929713,25.062413552974956
6.84,0.00939073949885228,-0.0019995862076041893,0.004403096261228706,0.04339906088365098,0.09908502220311033,9.99091521624351,25.062499242348967
6.85,0.008699729762789292,-0.0066900036764537835,0.002008765346804502,-0.02860421195592795,0.09480611505265113,9.955767924044947,25.062584907049263
6.86,0.0072767367643637336,-0.007530053337538249,0.002408294965943483,-0.046237242856249555,0.053160886785356104,10.008381270903332,25.062670547042035
6.87,0.010066831930394779,-0.005617992474763918,0.004417656338675382,-0.030251764988315978,0.06408535147456101,10.013630242836367,25.062756162293464
6.88,0.007629173161764501,-0.006242019515420811,0.0050610057504632665,-0.01286483682162838,0.11481014701669998,10.018855558720233,25.062841752769756
6.89,0.007961195457565741,-0.005257028486765374,0.003784395272370483,0.03540147109565354,0.01709918631725895,9.958228262001581,25.06292731843712
6.9,0.007589416531121543,-0.007969679831842607,0.001824476031396159,0.01534867831946779,0.10980916530376764,9.972785255072882,25.06301285926177
6.91,0.007686125718720318,-0.005920904631209475,0.00258525695962033,0.005848099395038463,0.023290455148503086,9.982107276825129,25.063098375209947
6.92,0.007958630161958441,-0.005924746411813298,0.0016283911933346828,0.007340139564246294,0.04408003602584265,9.963326435098569,25.06318386624788
6.93,0.006901850408624599,-0.005429830548770344,0.004425764602335318,-0.03829073071843756,0.00506492321500128,10.020353881702865,25.063269332341825
6.94,0.006615590100320288,-0.005778172729300371,0.0051246479478965195,0.019474230762934152,0.0744646462233268,9.97600957446831,25.06335477345804
6.95,0.008932487550789079,-0.006133400101819508,0.0034852260553432783,0.031725338717225465,0.07766295269030402,10.005336621012638,25.063440189562794
6.96,0.007244786618798595,-0.005345052303926481,0.004214614370457177,-0.0031580622977774673,0.03969791686699283,10.011252378685718,25.06352558062237
6.97,0.008755284807322641,-0.005815376661630387,0.004900640345382186,0.050064234159539936,0.08973313523726237,9.996904466443869,25.063610946603045
6.98,0.008113511039549241,-0.00490143579741564,0.004957905047403303,0.01770544385323079,0.027033108613390762,10.028465349676965,25.06369628747113
6.99,0.007034568043730224,-0.008531401665619043,0.005697842141616009,-0.023378914279960868,0.07720030571577484,10.100113510095179,25.06378160319293
7.0,0.008307990476854715,-0.00840028025369457,0.0032147985530594178,-0.015553572969813877,0.13971164265866487,10.020803535609055,25.06386689373476
7.01,0.008926249150843795,-0.00639154756358605,0.0034367324387489604,-0.020941968997858506,0.03560037733143636,10.080781779451147,25.063952159062953
7.02,0.009681058232375559,-0.007466202004937335,0.003122031306469683,0.01633646054109296,0.04202087002735651,9.998592460446625,25.06403739914385
7.03,0.008253663770057922,-0.005453363095124565,0.004545977337774804,0.014470073331268582,0.05762897109403508,10.016171972680771,25.06412261394379
7.04,0.009093485653482737,-0.005721989931045877,0.0045383223328322505,0.0547551268996283,0.02628997139224505,10.025731370488444,25.06420780342914
7.05,0.007688948888821901,-0.005912222375468601,0.004118287598058998,-0.0006401281404639302,0.04389988031035595,10.039412773369277,25.06429296756627
7.06,0.008258117762982844,-0.004918444269384135,0.004610660250139315,-0.042295969040541295,-0.008386984028151495,10.012288256472388,25.064378106321552
7.07,0.00805306040348022,-0.007132776378917456,0.0040744383838689805,-0.0025985921961868856,0.01999342698656116,9.950365520122078,25.064463219661373
7.08,0.007966378658125108,-0.005729545788261523,0.006427177837854443,0.05946580133006415,0.07083756574287102,10.005731863138296,25.06454830755214
7.09,0.007371472665750518,-0.0054087953732244965,0.005175308273968728,0.06740414726878322,0.08649089980583587,10.061720056657286,25.06463336996026
7.1,0.00811760229691926,-0.002727016833158969,0.0035841567790953757,-0.03385181784349564,0.02378615747650882,10.024849607523711,25.064718406852144
7.11,0.008388907066784057,-0.007118328042850175,0.0036133227913423775,0.013981776542873664,0.09286368699847648,9.952917955989994,25.064803418194227
7.12,0.008298720692475989,-0.004815174312769179,0.004351004317425931,0.022654722479149333,0.08557267173576823,10.035060706137964,25.06488840395295
7.13,0.009510937819201683,-0.006132951434829741,0.003634614617177094,-0.010654031436225668,0.07239437480469013,9.980282173057107,25.064973364094755
7.14,0.011244782128735264,-0.005448067290781157,0.003208570299423598,-0.007241582455413927,0.028670932499657843,9.980825896661159,25.065058298586106
7.15,0.007166883485302318,-0.007319751880343877,0.005030226291442467,-0.005682069851373598,0.04412692106613957,9.980821873822219,25.065143207393472
7.16,0.00756274724852811,-0.00582169253408092,0.003930140458117904,-0.03744111156534662,0.1127838320768523,9.989085185816823,25.06522809048333
7.17,0.008877790889529122,-0.007185441730037628,0.002816870485242683,0.011445767205936883,0.008621935225158125,10.0485479722531,25.06531294782217
7.18,0.008269156768617914,-0.005158657001420144,0.004365785544407405,0.00656161951460539,0.04544466279809642,9.991178685738753,25.065397779376493
7.19,0.007028655525083207,-0.0050515212210720485,0.0031817529801948024,0.02762909573298164,-0.02481352200485412,9.978729013161308,25.06548258511281
7.2,0.00737415362625634,-0.007321534934610803,0.005431274183517234,-0.0020257151280357686,0.05421603972552454,10.085273182837708,25.06556736499764
7.21,0.008760105849232818,-0.005153009274049577,0.005371932563256696,-0.008581004113443955,0.0855995057777263,10.06307622996915,25.065652118997512
7.22,0.011375179097886469,-0.008392916545474218,0.0031877857610351813,0.02166522257365289,0.0390063000041225,9.963999597248417,25.065736847078966
7.23,0.007260589898990572,-0.00719114747133577,0.002814658427635916,0.023909408481426142,0.10393385626238057,10.02257401905693,25.065821549208554
7.24,0.007640416323133561,-0.007703245201405167,0.0043685466042911545,0.03855024461808452,0.1304476673366664,10.031899177100499,25.065906225352837
7.25,0.008062037985714338,-0.005326559869330883,0.004558501296802078,-0.031472185973817526,0.05930285143412472,10.048950086192676,25.065990875478388
7.26,0.008723608224112013,-0.0065227725115534355,0.006333257742897034,-0.0059165937284403865,0.10003290665476283,10.002961219264371,25.066075499551783
7.27,0.008281317339778518,-0.008607478653674713,0.002897386679657161,0.011577222628405052,0.0480524008703722,10.010208362890273,25.06616009753962
7.28,0.005911396413166622,-0.00597573151918817,0.003866014253541333,0.007920222833086224,0.012833976060331896,9.990972214637404,25.066244669408498
7.29,0.007437889162520651,-0.0031847034426392804,0.004603881161484602,-0.0354494426056032,0.046474108993125936,9.979657959370712,25.066329215125027
7.3,0.0088713180337356,-0.007303502883118944,0.0029009406195358864,0.031901435287067265,0.0865283482383943,10.02303261293867,25.066413734655836
7.31,0.008044166598916346,-0.0057577900044868836,0.001958057276174097,-0.03648267693644504,0.055125376238020794,9.961993046023036,25.066498227967553
7.32,0.007783631572580559,-0.005980299083977093,0.0037633359176517584,-0.0028720015785328977,0.07600094268241955,10.036850538333281,25.06658269502682
7.33,0.007023931505183989,-0.006755349254689597,0.0038054548870699242,0.015732143395771305,0.09311035379239313,10.013415404381998,25.066667135800298
7.34,0.008108960028332057,-0.005153291784429205,0.005188941825445959,-0.0054600081603089195,0.08233564427158352,10.034110435205653,25.066751550254644
7.35,0.007646782731767301,-0.006638618674561501,0.004481421240887737,-0.014178350949711416,0.06848465323996192,9.995685172021227,25.066835938356533
7.36,0.008733013899693024,-0.00660788060656244,0.004869432824662789,-0.05871104406601214,0.07019613177917293,9.963678490182703,25.066920300072656
7.37,0.009175502409387169,-0.004191638948077858,0.005956152997391805,0.011393526280012816,0.014884573539486197,9.982073853535335,25.067004635369702
7.38,0.006960300633608673,-0.005980542506934484,0.0040124054662805265,-0.011461164052070483,0.09152144356871766,9.988030718080449,25.06708894421438
7.39,0.00788231171776099,-0.006908968087454191,0.0023658817964458214,-0.030702328608261213,0.0680748122958206,9.998160045160516,25.067173226573406
7.4,0.008111215335234805,-0.007075697923367078,0.004094592828822388,0.02526361681948017,0.02954051142339301,10.011850524228471,25.067257482413506
7.41,0.007047147749961376,-0.007539521684182078,0.004257728196414587,0.0756338039018156,0.05117333914703837,10.011078573110419,25.067341711701417
7.42,0.008181105832167796,-0.0051890052401506945,0.006404450143059388,-0.04828440774112864,0.03398972993621968,10.019814262465367,25.067425914403884
7.43,0.008332747437453016,-0.005320885526110219,0.0028146825382459424,-0.008350132275066577,0.07507727289682181,10.01870123794549,25.06751009048767
7.44,0.006455711071356351,-0.003784038774517333,0.002984172242073366,-0.03799408307633281,0.08630172591349487,9.965337281810482,25.06759423991954
7.45,0.006747267114237629,-0.006054738489703174,0.003900788345284873,-0.02140085717422281,0.06429872763495795,10.05524793625621,25.06767836266628
7.46,0.006916992192268051,-0.00642696250619834,0.005352313289415115,-0.028569490563824705,0.06200831469574745,10.01009585500257,25.067762458694666
7.47,0.007032807669401843,-0.00795114147811264,0.005036852982989772,0.021267599333173143,0.09102600539101446,9.992172791551937,25.06784652797151
7.48,0.008590756294325643,-0.006868726068908126,0.0022596162822603903,0.03190227723788849,0.09512215812713862,10.06218989372389,25.06793057046362
7.49,0.007106451972273725,-0.00607658621158898,0.005282239298872201,0.016604498991648613,0.06228138348987372,9.989916496844323,25.068014586137817
7.5,0.006756101630156412,-0.006118327834116063,0.004742659125884388,-0.04222280196448822,0.05009045108556204,10.008698007559246,25.06809857496093
7.51,0.005142479191853696,-0.0045526993648855405,0.002699304370572919,-0.0017379690729872033,0.07460925379881517,9.95856965521899,25.06818253689981
7.52,0.008398394592148322,-0.005654643590544958,0.00519304503061023,-0.003912428108694159,0.11372669625564867,10.03696236030407,25.068266471921298
7.53,0.008661109257072249,-0.009328206688421974,0.0031367428281284097,0.020032503876381634,0.0688122565006297,9.993409380563241,25.068350379992268
7.54,0.008165846155223937,-0.006272971840567702,0.004525371802732448,-0.05107530755270139,0.07067275053153596,9.92675349387873,25.068434261079588
7.55,0.008947239866803647,-0.005148167568998449,0.003764297563190088,-0.008219875878383293,0.057770692693934714,9.990793106066974,25.068518115150145
7.56,0.005784395586655423,-0.006637673748396744,0.004458004962952851,0.06668829180405692,0.1089547479828017,10.038153175477655,25.068601942170837
7.57,0.006691463296939427,-0.005116215377829793,0.004999232626994035,-0.026213002982171316,0.11167277915503271,10.024910212442357,25.068685742108567
7.58,0.00815224037155501,-0.010289291812837355,0.002594102801017016,-0.026712589792590336,0.05878922351629477,10.035777595313219,25.068769514930256
7.59,0.010263426990267298,-0.006765152910239729,0.0018174424545581045,-0.016419565219269253,0.06180806153083815,10.015230444069765,25.06885326060283
7.6,0.009482296865972326,-0.005981302171838858,0.005215434537853498,-0.031478826046199976,0.05031055026277874,9.972288397598616,25.068936979093223
7.61,0.008332350410263239,-0.0053580172093029635,0.004399310172485968,0.027606840471201568,0.032447598083837965,10.014440918532204,25.069020670368392
7.62,0.0088369859743052,-0.0028115973720214626,0.005068106969555107,-0.04015787455180793,0.026136917272043307,9.967283001306537,25.06910433439529
7.63,0.006103592818585359,-0.005374673878609536,0.00525562884491354,-0.0071404546164024075,0.0629238353591729,10.016775369446131,25.069187971140895
7.64,0.009443240967843375,-0.00659724697628274,0.00528143888970694,-0.05162025395130882,0.05315124724716931,9.981084892489276,25.069271580572185
7.65,0.009113290879461446,-0.002398475588242378,0.003174998090126637,0.017572154783107738,0.05037933272978065,10.002516607820207,25.069355162656148
7.66,0.0073911193083194895,-0.006428566667843936,0.0034607556349573474,-0.020801668155091792,0.10616328586853398,9.964028658456536,25.069438717359795
7.67,0.006931975100283677,-0.00986774570794324,0.0035218305789045524,-0.010445219711666863,0.0608859066916431,9.997059665209111,25.069522244650134
7.68,0.008443229671639886,-0.006690510583708275,0.006128919301882021,-0.02137127948120616,0.00714601098048058,9.982974913571462,25.069605744494194
7.69,0.008016050975259035,-0.004192559322742211,0.004287562454002965,-0.027234745245035916,0.10489143859596498,10.077573469715137,25.069689216859004
7.7,0.00899168877187191,-0.005609061824493013,0.00550566309509392,2.304966013191227e-05,0.01853996687162454,10.028720611382795,25.069772661711617
7.71,0.008067127220158881,-0.0053054310086757,0.004402966227015049,-0.027885494739536946,0.04249636049934933,9.984980014042133,25.06985607901909
7.72,0.007654057450247218,-0.005433024753505452,0.00645782487081745,-0.013468369806118766,0.047940982958258965,9.963071137621462,25.06993946874849
7.73,0.00767552366948547,-0.005412749150005452,0.005383556845956388,-0.019513609849792803,0.08643158894017616,10.004029377908026,25.070022830866893
7.74,0.009368303937133136,-0.005983597015192889,0.001378272426746902,0.005306215244663121,-0.004629797649836329,10.035432277072761,25.07010616534139
7.75,0.00862004338237816,-0.009107263962072273,0.005616930954035354,-0.019018796704893554,0.08934426952229543,10.010039993734326,25.070189472139084
7.76,0.008203368645431914,-0.0046004563721792156,0.003007677748000844,-0.015314802871359754,0.010895041324566937,10.074698270637697,25.07027275122709
7.77,0.0061369910320399354,-0.005634943862202366,0.003963036216048244,0.02564421819142152,0.0820392331912921,10.063305686574482,25.070356002572524
7.78,0.007410151008611402,-0.005881474206974131,0.007044179481235487,0.008269410366865838,0.09574035143868906,9.989788791752101,25.070439226142522
7.79,0.00900143065684287,-0.004530701951791354,0.004928330580708691,0.023674155984996212,0.040230442192108216,9.9889797185445,25.07052242190423
7.8,0.009775354572622632,-0.006266100342061043,0.0017397625615571768,0.004456817263628284,0.022385980521127724,10.01564477511599,25.0706055898248
7.81,0.007773696640392788,-0.004863570006004897,0.002933219565373419,-0.007811946296228072,0.0022214522819449245,9.990458019655714,25.070688729871403
7.82,0.007788360859412804,-0.006968477640203238,0.005652232177027443,-0.00880484109460178,0.08175257101547077,10.0142295344798,25.070771842011215
7.83,0.008899348418487876,-0.0050878431310984575,0.004683761444433068,0.044970971010694416,0.07243621867749513,9.987376445752501,25.070854926211425
7.84,0.007955300896937448,-0.005723421204461495,0.0026962969614144506,-0.00020398081429589426,0.0481278049664768,10.02071833139562,25.070937982439233
7.85,0.005376269625499319,-0.0057898864175169665,0.004356389281899359,0.0033414644238968236,0.040273480249150166,10.005378415073999,25.07102101066185
7.86,0.009451117482110452,-0.0038001298574846854,0.005726998333498842,0.015382219966642756,0.029693346927550174,10.01524748037263,25.07110401084649
7.87,0.006802371688047347,-0.006493171048929677,0.004528367725469518,-0.04581369288455474,0.08882914760796501,10.021972985944702,25.0711869829604
7.88,0.011038285613290613,-0.0039278611148005176,0.005231336878198219,0.05042529106865396,0.02660844968628806,10.041373655322126,25.071269926970814
7.89,0.007534654453340852,-0.007236479483617175,0.004867798671721563,0.029620201907043904,0.05277065267817907,9.993050612702241,25.071352842844988
7.9,0.006679206482918768,-0.006333810891372424,0.0038737442560978852,-0.031007581694701088,0.02019047846377018,9.981063701776861,25.071435730550192
7.91,0.00991149450694737,-0.006496576224143549,0.0013168253975701229,-0.036126469272088686,0.10255337954053728,9.957037538455392,25.0715185900537
7.92,0.008605333577194962,-0.006978630594345497,0.0040468941268815214,0.006013664343182837,0.07007289355278293,10.016543175422333,25.0716014213228
7.93,0.007895954358989451,-0.006383185594144876,0.0048693746399631746,0.014905458311969391,0.08437235888859089,9.990833690802026,25.071684224324795
7.94,0.006160562145976751,-0.006723819914936104,0.00475244170442912,0.004173319370706364,0.04965342763695954,10.046784018920004,25.07176699902699
7.95,0.007263098269586758,-0.00825232939297796,0.004735410877582409,0.06454277770424627,0.024443004715481477,9.94010797303666,25.071849745396715
7.96,0.009347713556529847,-0.006062993290700209,0.0018430698416835142,0.01862074707057064,0.08784359075859983,10.06772647402395,25.071932463401296
7.97,0.008847163696038579,-0.008323843033987564,0.0043396792045329825,0.023683510536499676,0.09695501684324177,10.058225143452042,25.072015153008078
7.98,0.006935043410309408,-0.007623775000073751,0.003513898981212341,0.045490133148926006,0.08254564428456815,9.964072493985807,25.07209781418442
7.99,0.007780042932287288,-0.006901891550541028,0.004647573606036666,0.0012959443248492975,0.06627423133365669,10.001909291737803,25.072180446897686
8.0,0.007464716745849399,-0.00462773277965945,0.004309290482207828,0.0004036212645356545,0.1017555357832613,9.980884586121972,25.072263051115257
8.01,0.00716293135208443,-0.0072123158373652,0.0021877540710478175,0.025518370885999585,0.06673351549661845,9.977662163544373,25.07234562680452
8.02,0.008348879813440187,-0.006496422566151901,0.0013905849191301342,-0.030751244947607358,0.010236327942555377,10.02064166495836,25.07242817393287
8.03,0.00735714215267672,-0.007261447640956933,0.005733245351387727,-0.0003505444020311592,0.03475138196065029,9.945067836018046,25.07251069246773
8.04,0.005956665665728028,-0.008017891119627675,0.00522096660741627,0.014528127055466728,0.05300878577919113,9.982265008900777,25.072593182376515
8.05,0.009628115788956755,-0.007042976114215898,0.003304705594910198,-0.027374397739524842,0.051193045424148535,10.020143087543655,25.07267564362666
8.06,0.008739482475863975,-0.009257939715723435,0.001952686947043888,-0.008352689532640482,0.024594412835698666,10.003243201438863,25.07275807618561
8.07,0.007663119918979146,-0.003830153207419224,0.0035206969030165867,0.03291322401757851,0.05900064255483789,10.007292753353417,25.07284048002083
8.08,0.008121124150082185,-0.004412695018410384,0.0063175732066059614,-0.008223268703345232,0.03296256330419106,9.97557048267668,25.072922855099776
8.09,0.007307781832222025,-0.006023571413226797,0.006004260743477127,-0.048308822002557456,0.09094747341884023,10.01990173363353,25.073005201389936
8.1,0.006173360869770286,-0.004561386501224649,0.0028798529144026157,0.0040214051775869075,0.06614946746976688,10.015968140679195,25.0730875188588
8.11,0.008122966840523788,-0.006339666666360384,0.0029461872392286476,-0.02048958870764767,0.048765804779787494,9.989928522323755,25.073169807473867
8.12,0.00682027768681007,-0.005613019890044744,0.0050950932609789504,0.07688952050625013,0.08643880716077036,10.010475433114411,25.073252067202656
8.13,0.007844316556173797,-0.005901841577773497,0.004628291472920152,0.04252632825389054,0.09258442084623564,9.960926422157918,25.073334298012686
