t,ax,ay,az,gx,gy,gz,temp
1,0.06456,0.054996,9.872907,0.004257,-0.006385,-0.00745,26.625
2,0.019129,-0.014347,9.913556,0.005321,-0.00745,0.002128,26.6875
3,0.014347,0.016738,9.894427,0.003193,0,0.00745,26.3125
4,0.007173,-0.007173,9.865733,0.005321,0,0.005321,26.4375
5,0.004782,0.02152,9.860951,0.002128,0.002128,0,26.3125
6,0.02152,0.026302,9.85856,0.001064,-0.004257,0.002128,26.4375
7,0.004782,0.033476,9.834649,0.004257,-0.004257,-0.004257,26.4375
8,0,0.02152,9.834649,0.005321,-0.005321,0,26.5
9,0.026302,0.033476,9.853778,0.003193,-0.005321,0.001064,26.5
10,0.014347,0.040649,9.937467,0.005321,-0.002128,0.001064,26.375
11,0.014347,0.040649,9.856169,0.004257,0.001064,0.003193,26.5625
12,-0.009564,0.011956,9.813129,0.008514,-0.003193,0.004257,26.5625
13,0.069342,0.019129,9.796391,-0.002128,-0.004257,0.002128,26.5
14,0.033476,0.009564,9.839431,0,-0.00745,0.001064,26.5
15,0.009564,0.014347,9.853778,0,-0.004257,0.004257,26.625
16,0.047822,0.002391,9.844213,0,-0.002128,0.006385,26.6875
17,0.028693,0.026302,9.832258,0.006385,-0.005321,0,26.375
18,0.047822,-0.007173,9.839431,0.003193,0,0.00745,26.625
19,0.047822,-0.023911,9.887253,0.004257,-0.002128,-0.005321,26.375
20,0.009564,0.014347,9.868125,0.004257,-0.004257,-0.001064,26.5625
21,0.054996,0.023911,9.899209,0.005321,-0.001064,0.003193,26.625
22,0.033476,0.028693,9.884862,0.002128,-0.008514,0.002128,26.5
23,0.06456,0.009564,9.872907,-0.005321,-0.001064,0.005321,26.625
24,-0.023911,0.011956,9.947031,0.005321,-0.002128,-0.003193,26.4375
25,0.059778,0.023911,9.846604,0.003193,0.001064,0,26.625
26,0.028693,0.019129,9.939858,0.003193,-0.006385,0,26.6875
27,-0.038258,0.028693,9.899209,0.004257,-0.005321,-0.001064,26.5
28,-0.007173,0.033476,9.894427,0.003193,0,0,26.625
29,0.011956,0.031084,9.877689,0.006385,-0.003193,-0.003193,26.5
30,-0.028693,0.031084,9.930293,0.006385,0.001064,0.002128,26.5
31,0.007173,0.007173,9.877689,0.004257,0,0.002128,26.625
32,0.02152,0.057387,9.896818,0.003193,-0.003193,0.003193,26.5625
33,0.002391,0.028693,9.884862,0.004257,-0.001064,0.004257,26.375
34,0.028693,0.04304,9.789218,0,-0.001064,0.004257,26.4375
35,0.02152,0.031084,9.81552,0,-0.002128,0.006385,26.5
36,0.050213,0.004782,9.81552,0,0.001064,0.001064,26.5
37,0.081298,0.016738,9.860951,-0.001064,-0.004257,0.003193,26.6875
38,0.04304,0.002391,9.920729,0.003193,-0.005321,0.003193,26.4375
39,0.074125,0.023911,9.892036,0.004257,-0.005321,0.001064,26.625
40,0.038258,0.002391,9.882471,0.009578,-0.001064,-0.002128,26.75
41,0.035867,0.035867,9.853778,-0.001064,-0.003193,0.004257,26.6875
42,0.071733,0.038258,9.915947,0.010642,0.001064,0.003193,26.625
43,0.035867,0.007173,9.94464,0.002128,-0.002128,0.003193,26.4375
44,0.014347,-0.007173,9.870516,0.004257,0,0.002128,26.4375
45,0.038258,0.009564,9.844213,-0.003193,-0.003193,0.003193,26.375
46,0.011956,0.007173,9.832258,0.004257,0.002128,-0.002128,26.5
47,0.016738,0.040649,9.829867,0.005321,-0.002128,-0.004257,26.5
48,0.009564,0.028693,9.784436,0.006385,-0.001064,-0.006385,26.3125
49,0.040649,0.06456,9.796391,0.003193,-0.002128,0,26.8125
50,0.045431,-0.002391,9.863342,0.004257,-0.001064,0.004257,26.375
51,0.02152,0.023911,9.851387,0.001064,-0.00745,0.005321,26.4375
52,0.054996,0.052604,9.865733,0.00745,0.001064,0.004257,26.6875
53,0.050213,0.009564,9.894427,0.006385,-0.008514,-0.004257,26.6875
54,0.066951,0.076516,9.808347,0.001064,0.001064,-0.003193,26.375
55,0.105209,-0.009564,9.85856,0.006385,-0.003193,0.005321,26.5625
56,0.08608,-0.007173,9.868125,0.003193,-0.003193,0.001064,26.6875
57,0.016738,-0.014347,9.856169,0.012771,-0.005321,0.004257,26.4375
58,0.014347,0.002391,9.827476,0.006385,-0.002128,0.00745,26.6875
59,0.038258,0.014347,9.863342,0.005321,-0.00745,-0.001064,26.3125
60,0.040649,0.038258,9.903991,0.003193,-0.002128,0.001064,26.5625
61,0.007173,0.078907,9.827476,0.00745,-0.002128,-0.001064,26.4375
62,0.002391,0.031084,9.877689,0.00745,-0.004257,0.00745,26.625
63,-0.023911,0.052604,9.887253,-0.002128,-0.00745,0.003193,26.5
64,-0.011956,-0.011956,9.908773,0,-0.002128,-0.004257,26.375
65,0.02152,0.023911,9.884862,0.002128,-0.003193,0.009578,26.4375
66,0.011956,0.033476,9.829867,0.00745,0.002128,-0.001064,26.5625
67,-0.02152,-0.011956,9.829867,0.00745,-0.002128,-0.001064,26.4375
68,0.002391,0.054996,9.817911,0.002128,-0.005321,0.003193,26.4375
69,0.050213,-0.016738,9.848996,0.002128,-0.002128,0.003193,26.5625
70,0.057387,-0.011956,9.801173,0.00745,-0.005321,0.001064,26.625
71,0.121947,0,9.746178,0.005321,0.001064,-0.002128,26.4375
72,0.052604,0.050213,9.911165,0.00745,-0.004257,0.001064,26.625
73,0.031084,0.002391,9.841822,0.004257,0.001064,0.002128,26.3125
74,0.002391,0.047822,9.868125,0.002128,-0.005321,-0.002128,26.5
75,0.028693,-0.002391,9.872907,0.010642,-0.001064,-0.004257,26.5
76,0.009564,0.028693,9.899209,0.004257,0,-0.002128,26.6875
77,0.016738,0.059778,9.841822,0.004257,-0.001064,0,26.5625
78,0.004782,0.045431,9.937467,-0.004257,-0.004257,0.002128,26.6875
79,-0.031084,0.011956,9.789218,0.001064,-0.001064,0,26.3125
80,0.019129,0.002391,9.853778,0.005321,-0.003193,0.002128,26.5
81,-0.023911,0.035867,9.841822,0.002128,0.001064,-0.004257,26.375
82,0.06456,0.023911,9.85856,0.005321,-0.003193,0.005321,26.625
83,0.071733,-0.014347,9.832258,0.003193,-0.003193,0,26.375
84,0.06456,0.052604,9.848996,0.005321,-0.001064,-0.003193,26.6875
85,0.04304,0.009564,9.911165,0.005321,0,0.005321,26.5
86,0.052604,0,9.841822,0.00745,-0.002128,0.003193,26.5
87,0.088471,0.054996,9.932685,0.006385,0.002128,-0.004257,26.6875
88,-0.004782,0.009564,9.860951,0.005321,0.001064,-0.002128,26.375
89,0.031084,0.014347,9.92312,0.00745,-0.004257,0.004257,26.5
90,-0.031084,0.045431,9.9016,0.001064,-0.002128,0,26.625
91,0.02152,0.028693,9.868125,0.00745,-0.001064,0.002128,26.6875
92,-0.002391,0.02152,9.872907,0.006385,-0.008514,0.004257,26.6875
93,-0.014347,0.031084,9.81552,0,0.004257,0.001064,26.5
94,0.038258,0.016738,9.786827,0,0.002128,0.006385,26.375
95,0.028693,0.026302,9.784436,0.002128,0,0.003193,26.5
96,0.081298,-0.011956,9.875298,0.008514,-0.009578,-0.003193,26.5
97,0.081298,0.011956,9.839431,0.005321,-0.002128,0.002128,26.3125
98,0.119556,0.002391,9.882471,0.009578,-0.006385,0.006385,26.625
99,0.045431,0.026302,9.825084,0.006385,0.002128,0.008514,26.6875
100,0.054996,-0.02152,9.882471,0.005321,-0.003193,0.003193,26.625
101,0.040649,-0.02152,9.925511,0.004257,-0.002128,0.005321,26.5625
102,0.047822,0,9.887253,0.006385,0,-0.004257,26.3125
103,-0.002391,0.066951,9.877689,0.00745,0.001064,-0.003193,26.3125
104,0.011956,0.059778,9.839431,0.001064,-0.003193,0.001064,26.625
105,0.011956,0.06456,9.889645,0.003193,-0.004257,0,26.5625
106,0.016738,0.031084,9.896818,0.001064,0.002128,0.004257,26.4375
107,0.045431,0.002391,9.83704,0.003193,-0.00745,-0.005321,26.5
108,0.026302,0.019129,9.896818,0.005321,-0.001064,0.001064,26.5625
109,0.009564,0.016738,9.805956,0.005321,-0.004257,0.005321,26.625
110,0.023911,-0.038258,9.841822,-0.001064,0.001064,0,26.6875
111,0.033476,0.014347,9.827476,0.001064,-0.003193,0.004257,26.5
112,0.054996,0.009564,9.844213,0.006385,-0.002128,-0.003193,26.3125
113,0.06456,0.045431,9.856169,0.009578,-0.001064,0.002128,26.5
114,0.054996,0.035867,9.851387,0.005321,0.002128,0.003193,26.6875
115,0.081298,0.04304,9.894427,0.004257,-0.002128,-0.001064,26.5625
116,0.057387,-0.019129,9.875298,0.004257,-0.002128,0,26.4375
117,0.016738,0.016738,9.906382,0.002128,-0.002128,0.008514,26.6875
118,0.011956,0.033476,9.908773,0.004257,-0.005321,-0.002128,26.5625
119,0.016738,0.002391,9.887253,0,-0.004257,0.003193,26.5625
120,-0.019129,0.062169,9.839431,0.001064,-0.004257,0.005321,26.375
121,0.004782,0.004782,9.868125,0,-0.003193,-0.001064,26.5
122,0.014347,0.031084,9.839431,0.001064,0,0.005321,26.75
123,0.02152,0.045431,9.817911,-0.005321,-0.002128,0.005321,26.625
124,0.023911,0.08608,9.860951,0.004257,-0.001064,0.003193,26.5625
125,-0.02152,0.033476,9.906382,0.006385,-0.008514,0.005321,26.5625
126,0.004782,0.033476,9.875298,0.008514,0,0.002128,26.6875
127,0.007173,0.04304,9.894427,0.005321,-0.002128,-0.002128,26.75
128,0.047822,0.045431,9.870516,0.001064,0,0.005321,26.5625
129,0.016738,0.04304,9.801173,0.004257,-0.00745,-0.001064,26.4375
130,0.02152,0.040649,9.846604,0.006385,0.003193,0.001064,26.5625
131,0.066951,-0.033476,9.794,0.003193,-0.002128,0.003193,26.5625
132,0.04304,0.062169,9.920729,0.00745,-0.008514,0.001064,26.375
133,0.019129,-0.011956,9.863342,0.002128,-0.005321,0.002128,26.5
134,0.069342,0.014347,9.860951,0.00745,-0.003193,0,26.3125
135,0.047822,0.014347,9.875298,0.002128,-0.004257,0.002128,26.4375
136,0.023911,-0.009564,9.88008,0.004257,0,0.002128,26.5625
137,0.031084,0.031084,9.925511,0.005321,-0.004257,-0.002128,26.5
138,0.019129,-0.002391,9.877689,0,0.004257,-0.004257,26.625
139,0.023911,0.074125,9.903991,0,-0.005321,0.002128,26.5625
140,-0.009564,0.040649,9.846604,0.004257,-0.004257,0.002128,26.5
141,-0.014347,0.076516,9.892036,0.004257,-0.004257,0,26.375
142,0.057387,0.016738,9.88008,0.002128,-0.002128,0.003193,26.5
143,0.045431,0.040649,9.798782,0.001064,-0.006385,0.012771,26.625
144,0.06456,-0.011956,9.810738,0.004257,-0.003193,0.006385,26.4375
145,0.026302,-0.002391,9.758133,0.006385,0.003193,0.002128,26.4375
146,0.040649,-0.004782,9.827476,0.003193,0,0.008514,26.6875
147,0.090862,-0.011956,9.872907,0.005321,-0.005321,0.006385,26.4375
148,0.062169,0.02152,9.894427,0.003193,0.001064,0.002128,26.4375
149,0.083689,-0.007173,9.863342,0.002128,-0.008514,0.008514,26.375
150,0.057387,0.019129,9.9016,0.004257,-0.005321,0.00745,26.5
151,0.06456,-0.011956,9.958987,0.00745,0,0.00745,26.5625
152,0.040649,0.002391,9.908773,0.001064,-0.001064,-0.003193,26.625
153,0.011956,0.007173,9.887253,0.00745,-0.002128,0,26.5
154,0.050213,0.076516,9.978116,-0.001064,0.001064,-0.003193,26.6875
155,0.02152,0.038258,9.853778,0.003193,-0.003193,0.002128,26.4375
156,-0.050213,0.004782,9.882471,0.00745,-0.002128,0,26.6875
157,-0.02152,0.047822,9.853778,0.002128,-0.002128,0.005321,26.375
158,-0.02152,0.007173,9.848996,-0.002128,-0.003193,-0.004257,26.4375
159,0.035867,0.033476,9.856169,0.006385,0.001064,0.003193,26.375
160,0.023911,0.038258,9.801173,0.001064,-0.008514,0.002128,26.625
161,0.002391,0.023911,9.839431,0.003193,-0.004257,0.004257,26.625
162,0.035867,0.019129,9.784436,0.001064,-0.004257,0.001064,26.4375
163,0.038258,0.007173,9.915947,0.00745,-0.003193,-0.005321,26.5625
164,0.057387,-0.02152,9.872907,0.010642,-0.004257,0.004257,26.5625
165,0.04304,0.007173,9.863342,0.003193,0.003193,0.003193,26.25
166,0.054996,0.035867,9.920729,0.009578,-0.004257,0.003193,26.6875
167,0.078907,0.06456,9.906382,0.003193,-0.003193,0,26.5625
168,0,0.014347,9.863342,0,-0.006385,0.003193,26.375
169,0.02152,-0.007173,9.872907,0,-0.003193,0.001064,26.4375
170,0.062169,0.019129,9.834649,0.008514,-0.00745,0.003193,26.4375
171,0.076516,-0.011956,9.860951,-0.001064,-0.002128,0,26.5
172,0.057387,0.016738,9.860951,0.00745,-0.004257,0,26.375
173,0.093253,0.023911,9.851387,0.010642,-0.002128,0.001064,26.375
174,0.052604,0.052604,9.856169,0.009578,-0.003193,0.00745,26.625
175,0.047822,0.014347,9.906382,0.006385,-0.005321,0.002128,26.5625
176,0.035867,0.009564,9.870516,0,0.001064,0,26.5625
177,0.050213,0.019129,9.908773,0.00745,0.005321,0.003193,26.5
178,0.035867,0.035867,9.932685,0.006385,-0.002128,-0.005321,26.6875
179,0.038258,0.033476,9.85856,0.008514,-0.001064,0.004257,26.375
180,0.016738,0.007173,9.851387,-0.001064,-0.00745,0,26.625
181,-0.004782,0.052604,9.85856,0.002128,0.001064,0,26.4375
182,0.04304,0.045431,9.83704,0,-0.001064,0.003193,26.5
183,0.040649,0.038258,9.825084,0.004257,0.004257,0.005321,26.4375
184,0.026302,0.011956,9.794,0.001064,-0.002128,0.006385,26.5
185,0.028693,-0.007173,9.848996,0.002128,-0.005321,0.008514,26.5625
186,0.04304,0.026302,9.848996,0,0.001064,0,26.5
187,0.02152,0.011956,9.844213,0.003193,0.001064,-0.003193,26.375
188,0.069342,-0.004782,9.863342,0.005321,-0.004257,0.005321,26.25
189,0.052604,-0.009564,9.889645,0.004257,-0.002128,0,26.5
190,0.047822,0.014347,9.896818,0.00745,-0.003193,0.003193,26.5
191,0.062169,0.054996,9.908773,0.003193,0.002128,0.002128,26.375
192,0.057387,0.059778,9.906382,0.006385,-0.002128,0.005321,26.375
193,0.06456,0.019129,9.911165,0.008514,-0.003193,0.002128,26.625
194,0.023911,0.028693,9.851387,0.004257,-0.004257,0,26.4375
195,0.050213,0.004782,9.908773,0.001064,0.001064,-0.001064,26.5625
196,0.028693,0.019129,9.913556,0.002128,-0.003193,0,26.4375
197,0.038258,-0.014347,9.94464,0.009578,-0.003193,0.003193,26.5625
198,-0.004782,0.050213,9.889645,0.003193,0.001064,0.00745,26.625
199,0.002391,0.023911,9.9016,-0.001064,-0.003193,0.004257,26.375
200,-0.04304,0.038258,9.856169,0.005321,-0.001064,0.005321,26.5
201,0.016738,0.038258,9.825084,0.004257,-0.005321,-0.002128,26.5
202,0.007173,0.040649,9.856169,0.003193,-0.001064,0.004257,26.5625
203,0.014347,0.04304,9.810738,0.003193,0.004257,0,26.625
204,-0.009564,0.026302,9.782044,0.006385,-0.002128,0.005321,26.375
205,0.009564,0.026302,9.865733,0.001064,-0.001064,-0.002128,26.625
206,0.031084,0.004782,9.801173,0.003193,-0.006385,0.00745,26.3125
207,0.06456,0.02152,9.853778,0.002128,0,-0.001064,26.3125
208,0.062169,-0.02152,9.863342,0.008514,-0.003193,0.003193,26.5
209,0.081298,0.019129,9.844213,0.006385,-0.004257,0.004257,26.6875
210,0.076516,0.007173,9.894427,0.005321,0.002128,0.006385,26.4375
211,0.028693,0.023911,9.875298,0.003193,-0.001064,0.004257,26.5
212,0.016738,0.011956,9.894427,0.006385,-0.004257,0.001064,26.6875
213,0.04304,0.02152,9.877689,0.006385,-0.002128,0,26.5
214,0.007173,0.040649,9.894427,0.004257,-0.001064,0.006385,26.3125
215,0.057387,-0.028693,9.841822,0.006385,-0.004257,0.002128,26.5625
216,0,0.014347,9.918338,0.002128,0.001064,-0.001064,26.625
217,0.026302,0.035867,9.803564,0.004257,-0.001064,0.002128,26.6875
218,0.02152,0.019129,9.9016,0,-0.002128,0.005321,26.5625
219,0.019129,0.028693,9.892036,-0.006385,0.003193,0.00745,26.5
220,0.009564,0.007173,9.829867,0.003193,-0.009578,0.00745,26.4375
221,-0.014347,0.014347,9.834649,0.00745,0.001064,0.004257,26.5625
222,0.062169,-0.009564,9.844213,0.001064,-0.003193,0.002128,26.3125
223,0.083689,-0.002391,9.844213,0.00745,-0.004257,0.001064,26.5625
224,0.076516,0.016738,9.85856,0.006385,-0.003193,0.006385,26.4375
225,0.019129,-0.002391,9.932685,0.008514,0.001064,-0.002128,26.5625
226,0.083689,0.040649,9.939858,0.00745,0.002128,0.001064,26.5625
227,0.023911,0.059778,9.889645,0.00745,0.001064,-0.003193,26.5625
228,0.028693,0.009564,9.853778,0.008514,-0.005321,0.002128,26.3125
229,0.040649,0.040649,9.925511,-0.003193,-0.002128,-0.002128,26.6875
230,-0.004782,0.069342,9.875298,0.002128,0.001064,0.001064,26.5
231,0.031084,0.033476,9.83704,-0.002128,-0.004257,-0.002128,26.625
232,-0.014347,0.038258,9.827476,-0.001064,-0.004257,-0.002128,26.6875
233,0.016738,0.02152,9.896818,0.003193,-0.001064,0.003193,26.6875
234,-0.016738,0.026302,9.794,0.005321,-0.001064,0.00745,26.5625
235,0.035867,0.009564,9.817911,0.005321,0.002128,0.006385,26.5625
236,0.014347,0.071733,9.789218,0.003193,-0.002128,0.003193,26.5
237,0.062169,-0.02152,9.817911,0.005321,0.002128,0.004257,26.625
238,0.071733,-0.016738,9.827476,-0.009578,-0.002128,0.004257,26.3125
239,0.074125,0.011956,9.877689,0.006385,-0.001064,0.002128,26.5
240,0.081298,0.004782,9.925511,0.005321,-0.003193,0.00745,26.4375
241,0.050213,-0.026302,9.856169,0.005321,-0.002128,-0.002128,26.6875
242,0.028693,0.033476,9.9016,0.001064,-0.006385,-0.002128,26.375
243,0,0.02152,9.927902,0.005321,-0.004257,-0.001064,26.3125
244,0.002391,0.031084,9.865733,0.005321,-0.005321,0,26.625
245,-0.002391,0.011956,9.83704,0.00745,0.001064,0.005321,26.4375
246,-0.016738,0.02152,9.896818,0.006385,-0.003193,0.002128,26.25
247,0.078907,0.007173,9.9016,0.005321,-0.002128,-0.001064,26.625
248,0.057387,0.057387,9.813129,0.001064,-0.005321,0,26.6875
249,0.078907,0.026302,9.841822,0.006385,-0.003193,0.002128,26.4375
250,0.06456,0.011956,9.887253,0.005321,0,0.002128,26.5
251,0.066951,0.019129,9.860951,0.00745,-0.004257,0.002128,26.3125
252,0.08608,0.045431,9.844213,0.008514,-0.001064,0.002128,26.5625
253,0.081298,0.026302,9.827476,0.003193,-0.001064,0,26.375
254,0.114773,-0.016738,9.834649,0.006385,-0.002128,0.005321,26.5625
255,0.016738,-0.040649,9.846604,0.008514,-0.006385,-0.005321,26.5625
256,0.136293,0.004782,9.884862,0.00745,-0.003193,0.006385,26.625
257,0.08608,0.054996,9.920729,0.004257,0.001064,-0.003193,26.6875
258,-0.004782,0.054996,9.930293,0.006385,0.002128,-0.005321,26.5
259,0.038258,0.04304,9.903991,0.002128,-0.002128,-0.003193,26.625
260,0.038258,0.045431,9.925511,0.00745,-0.004257,0.006385,26.4375
261,-0.019129,-0.02152,9.911165,0.008514,-0.001064,0.003193,26.4375
262,0.06456,0.100427,9.875298,0.001064,-0.006385,0.004257,26.375
263,-0.019129,0.031084,9.882471,0.010642,-0.001064,0,26.75
264,0.009564,0.04304,9.841822,0.001064,0,0.006385,26.625
265,0.047822,0.062169,9.851387,0.004257,-0.005321,0.005321,26.625
266,-0.002391,0.04304,9.877689,0.002128,-0.001064,-0.002128,26.5
267,0.026302,0.050213,9.83704,0,0.002128,0.004257,26.5625
268,-0.019129,0.019129,9.870516,0.003193,-0.001064,0.005321,26.625
269,0.035867,0.031084,9.789218,0.006385,-0.001064,0.003193,26.5625
270,0.019129,-0.011956,9.794,0.005321,-0.006385,0.003193,26.5
271,0.004782,0.002391,9.860951,0.004257,-0.003193,0.001064,26.5625
272,0.033476,0.011956,9.865733,0.004257,-0.001064,0.004257,26.6875
273,0.007173,0.023911,9.810738,0,-0.001064,-0.001064,26.625
274,0.062169,0.014347,9.810738,0.006385,-0.004257,0,26.5625
275,0.031084,0.031084,9.805956,0.004257,0,-0.001064,26.625
276,0.088471,0.02152,9.88008,0.00745,-0.004257,0.001064,26.5
277,0.059778,0,9.856169,0.006385,0.001064,0.002128,26.4375
278,0.062169,0.004782,9.892036,0.004257,-0.003193,-0.001064,26.6875
279,0.088471,0.02152,9.930293,0.004257,-0.003193,0.005321,26.5
280,0.062169,0.026302,9.870516,0,-0.001064,0.004257,26.375
281,0.050213,-0.02152,9.85856,0.004257,-0.003193,0.005321,26.5625
282,0.047822,0.019129,9.927902,0.006385,-0.003193,0,26.5625
283,0.062169,0.045431,9.848996,0.005321,0.003193,0.002128,26.4375
284,0.078907,0.019129,9.839431,0.010642,-0.001064,0.001064,26.6875
285,0.033476,0.057387,9.930293,0.008514,-0.003193,0.002128,26.5
286,0.02152,-0.016738,9.887253,0.004257,-0.005321,0,26.5625
287,0.033476,0.016738,9.896818,0.005321,0.002128,-0.001064,26.5
288,0.040649,0.028693,9.927902,0.00745,-0.006385,0.003193,26.6875
289,0.023911,0.038258,9.915947,0.008514,-0.003193,0.008514,26.5
290,0.007173,0.038258,9.915947,0.001064,0.003193,-0.003193,26.625
291,-0.026302,0.059778,9.884862,0.002128,-0.001064,-0.001064,26.4375
292,0.014347,0.028693,9.896818,0.006385,-0.002128,0.003193,26.3125
293,0.050213,0.016738,9.856169,0,-0.008514,0.006385,26.625
294,-0.033476,0.026302,9.853778,0.003193,0.003193,0,26.3125
295,-0.014347,0.059778,9.817911,0.001064,0.004257,0.004257,26.5625
296,-0.031084,0.007173,9.798782,-0.004257,0.002128,0.006385,26.6875
297,0.035867,0.038258,9.810738,0.006385,-0.004257,0.002128,26.5625
298,0.026302,0.038258,9.817911,0.003193,-0.003193,-0.002128,26.5
299,-0.031084,0.031084,9.844213,0.001064,0.003193,0.002128,26.8125
300,0.019129,0.035867,9.801173,0.002128,0.002128,0.003193,26.8125
301,0.083689,0.011956,9.889645,0.005321,-0.006385,0.009578,26.5625
302,0.066951,0.040649,9.870516,0.003193,0.002128,0.001064,26.625
303,0.059778,0.040649,9.884862,0.006385,0.002128,0.001064,26.6875
304,0.066951,-0.007173,9.915947,0.00745,-0.001064,0.006385,26.6875
305,0.019129,0.054996,9.887253,0.003193,-0.002128,0.001064,26.5
306,0.06456,0.035867,9.911165,0.005321,-0.005321,-0.005321,26.625
307,0.062169,0.016738,9.868125,0.004257,-0.005321,-0.001064,26.3125
308,0.007173,0.026302,9.906382,0.006385,-0.001064,0.003193,26.75
309,0.040649,-0.014347,9.868125,0.003193,0.002128,0.006385,26.5
310,0.02152,0.066951,9.892036,0.001064,0.004257,0.004257,26.625
311,0.031084,0.04304,9.884862,0.00745,-0.004257,0.002128,26.625
312,0.002391,0.040649,9.853778,0,-0.005321,-0.001064,26.4375
313,-0.007173,0.038258,9.829867,0.001064,-0.006385,0.006385,26.6875
314,0.028693,-0.002391,9.81552,0.003193,-0.001064,0.001064,26.4375
315,0.02152,0.002391,9.841822,0.00745,-0.001064,0.002128,26.5
316,0.069342,0.028693,9.865733,0.003193,-0.001064,-0.005321,26.4375
317,0.076516,0.016738,9.863342,0.005321,0.001064,0.003193,26.6875
318,0.023911,0.014347,9.839431,0.009578,-0.001064,0.004257,26.5625
319,0.093253,0.014347,9.841822,0.002128,-0.002128,-0.001064,26.6875
320,0.105209,0.050213,9.872907,0.003193,0.002128,0.001064,26.3125
321,0.105209,0.007173,9.906382,0.005321,-0.004257,-0.001064,26.4375
322,0.057387,-0.026302,9.920729,0.003193,-0.004257,0.002128,26.5625
323,0.023911,0.050213,9.927902,0.008514,-0.008514,0.002128,26.5625
324,0.028693,0.040649,9.892036,0.005321,-0.005321,0.003193,26.5625
325,0.033476,0.050213,9.911165,0.005321,-0.008514,0.002128,26.5625
326,0,0.04304,9.88008,0.006385,-0.005321,0.002128,26.5
327,-0.028693,0.016738,9.903991,0.001064,-0.002128,-0.003193,26.75
328,-0.009564,0.059778,9.865733,0.008514,-0.008514,-0.001064,26.5625
329,0.019129,0.026302,9.906382,0,-0.00745,0.004257,26.6875
330,0,0.050213,9.817911,0.003193,-0.003193,-0.003193,26.4375
331,0.047822,0.04304,9.848996,0.001064,-0.005321,0.001064,26.5
332,0.035867,0.011956,9.892036,0,-0.004257,0.004257,26.6875
333,0.062169,-0.002391,9.872907,0.005321,-0.005321,0,26.375
334,0.069342,-0.011956,9.906382,0.00745,0.001064,-0.002128,26.625
335,0.052604,0.035867,9.853778,0.003193,-0.005321,0,26.625
336,0.083689,0.02152,9.860951,0.004257,0.001064,0,26.375
337,0.076516,0.023911,9.872907,0.004257,-0.003193,0.004257,26.5
338,0.04304,-0.011956,9.863342,0.005321,-0.004257,0.001064,26.5625
339,0.071733,0.02152,9.892036,0.008514,-0.006385,0.008514,26.6875
340,0.047822,0.007173,9.911165,0.004257,-0.00745,-0.003193,26.5625
341,0.040649,-0.026302,9.899209,0.004257,-0.003193,0.003193,26.6875
342,0.026302,0.028693,9.925511,0.00745,-0.004257,0.009578,26.5
343,0.004782,0.026302,9.870516,-0.001064,-0.004257,-0.001064,26.3125
344,0.007173,0.016738,9.927902,-0.004257,0,0.006385,26.5
345,0.057387,0.026302,9.851387,0.004257,-0.003193,0.002128,26.5625
346,-0.04304,0.040649,9.844213,0.001064,-0.00745,-0.004257,26.3125
347,0.009564,-0.004782,9.884862,-0.002128,0.003193,0.003193,26.625
348,0.033476,0.026302,9.810738,0.002128,-0.004257,0.005321,26.5
349,0.038258,0.011956,9.767698,0.005321,-0.002128,0.003193,26.5
350,0.02152,-0.009564,9.848996,0.005321,0.001064,0.00745,26.5
351,0.069342,0.014347,9.801173,0.00745,-0.003193,-0.002128,26.6875
352,0.054996,-0.011956,9.88008,0.001064,-0.001064,-0.003193,26.6875
353,0.066951,0.016738,9.872907,0.008514,-0.005321,0,26.6875
354,0.081298,0.004782,9.899209,0.00745,-0.004257,0.005321,26.5625
355,0.038258,0.009564,9.908773,0.006385,-0.00745,-0.004257,26.6875
356,0.031084,0.014347,9.884862,0.00745,-0.001064,0.001064,26.375
357,0.026302,0.033476,9.860951,0.005321,-0.003193,0.004257,26.5
358,0.023911,0.026302,9.875298,0.004257,0.001064,0.006385,26.625
359,-0.031084,0.014347,9.88008,0.004257,-0.001064,0.008514,26.5
360,-0.002391,0.007173,9.894427,0.001064,-0.003193,0,26.625
361,0.011956,0.007173,9.822693,0.006385,-0.005321,0.002128,26.4375
362,-0.004782,0.031084,9.848996,0,0.005321,0.002128,26.625
363,0.002391,0.047822,9.846604,-0.001064,-0.003193,0.005321,26.625
364,0.04304,0.023911,9.822693,0.001064,-0.001064,0.005321,26.3125
365,0.033476,0.004782,9.827476,0.009578,-0.006385,-0.001064,26.625
366,0.047822,0.02152,9.832258,0.00745,-0.005321,-0.002128,26.5625
367,0.052604,-0.007173,9.846604,-0.001064,-0.006385,0.001064,26.5625
368,0.098036,-0.016738,9.889645,0.006385,-0.002128,0,26.375
369,0.045431,-0.011956,9.860951,0,0.004257,0.008514,26.6875
370,0.074125,-0.009564,9.877689,0.003193,0,0,26.5
371,0.066951,-0.009564,9.872907,0.006385,-0.002128,0.002128,26.5
372,0.052604,0.031084,9.846604,0,-0.006385,0.003193,26.5625
373,0.040649,0.016738,9.908773,0.001064,-0.002128,0,26.6875
374,0.031084,-0.009564,9.877689,0.005321,-0.004257,0.001064,26.3125
375,0.02152,0.023911,9.958987,0.002128,-0.001064,0.00745,26.625
376,0.031084,0.033476,9.892036,0.004257,0.001064,0.006385,26.5625
377,0.023911,0.023911,9.846604,0.002128,-0.005321,0,26.4375
378,0.04304,0.019129,9.863342,0,-0.002128,0.001064,26.4375
379,-0.011956,0.002391,9.863342,0.002128,0.001064,0.001064,26.5
380,0.016738,-0.004782,9.865733,0.001064,-0.006385,0.003193,26.6875
381,0.007173,0.031084,9.844213,0,0,-0.002128,26.6875
382,0.016738,-0.011956,9.865733,0.00745,0.001064,-0.003193,26.4375
383,0.016738,0.019129,9.789218,0,-0.003193,0.001064,26.3125
384,0.033476,-0.011956,9.834649,0.005321,-0.003193,0.002128,26.625
385,0.02152,0.026302,9.810738,0.005321,-0.003193,0.008514,26.6875
386,0.078907,0.050213,9.841822,0.003193,-0.002128,0.002128,26.4375
387,0.045431,0.035867,9.863342,0.003193,0,-0.001064,26.5
388,0.04304,0.014347,9.856169,0.001064,-0.002128,0.006385,26.6875
389,0.078907,-0.02152,9.88008,0.002128,-0.004257,0.003193,26.5625
390,0.066951,0.038258,9.865733,0.00745,-0.001064,0.002128,26.5
391,0.045431,0.026302,9.894427,0.00745,0.004257,0,26.5
392,0.047822,0.023911,9.925511,0.003193,-0.003193,0.004257,26.5625
393,0.054996,0.028693,9.903991,0.002128,-0.004257,0.001064,26.625
394,0.02152,0.026302,9.868125,0.005321,-0.005321,-0.004257,26.3125
395,0.026302,0.054996,9.825084,0,0.002128,0.001064,26.3125
396,0.011956,0.016738,9.875298,0.005321,-0.003193,0.006385,26.5
397,-0.004782,0.031084,9.789218,0.001064,-0.001064,0.004257,26.375
398,-0.002391,0.023911,9.841822,0.005321,-0.003193,0.008514,26.4375
399,0.016738,-0.02152,9.868125,0.006385,0.001064,0.008514,26.5625
400,0.031084,0.016738,9.817911,0.006385,0,0.001064,26.625
401,0.095645,0.026302,9.882471,0.001064,0.002128,0.001064,26.625
402,0.028693,0.007173,9.860951,0.005321,-0.003193,-0.001064,26.5
403,0.052604,0.057387,9.808347,0.004257,-0.001064,0.005321,26.5
404,0.066951,-0.031084,9.868125,0.005321,-0.002128,0.003193,26.5
405,0.08608,0.004782,9.889645,0.004257,-0.003193,0.00745,26.625
406,0.045431,0.031084,9.865733,0.006385,0.002128,-0.002128,26.4375
407,0.050213,0.007173,9.903991,-0.001064,-0.006385,0.002128,26.375
408,0.016738,0.014347,9.872907,0.003193,-0.002128,0.002128,26.4375
409,0.031084,0.004782,9.88008,0.003193,-0.002128,0.002128,26.5
410,-0.016738,0,9.870516,0.003193,-0.006385,-0.001064,26.3125
411,0.026302,0.04304,9.83704,0.005321,-0.001064,0.002128,26.625
412,0.028693,0.019129,9.856169,0.003193,-0.002128,-0.002128,26.5625
413,-0.007173,0.007173,9.796391,0,-0.001064,-0.001064,26.6875
414,0.040649,0.023911,9.822693,0.005321,-0.001064,0.001064,26.5625
415,0.014347,0.035867,9.786827,-0.004257,-0.003193,0.001064,26.5
416,0.002391,-0.011956,9.884862,0.00745,0.004257,0.004257,26.625
417,0.040649,0.04304,9.870516,0.004257,-0.002128,0.001064,26.5
418,0.038258,-0.009564,9.851387,0.003193,-0.004257,0.005321,26.3125
419,0.057387,0.016738,9.85856,0.004257,-0.001064,0.006385,26.5
420,0.114773,-0.016738,9.894427,0.00745,-0.003193,0,26.3125
421,0.093253,0.009564,9.860951,0.003193,-0.004257,0.012771,26.625
422,0.031084,0.004782,9.846604,0.005321,-0.002128,0.001064,26.25
423,0.06456,-0.004782,9.817911,0.005321,-0.002128,-0.001064,26.625
424,0.023911,0.007173,9.882471,0.00745,-0.002128,0.002128,26.4375
425,0.066951,0.047822,9.92312,0.010642,-0.002128,0,26.5
426,0.047822,-0.011956,9.882471,0.002128,-0.001064,0,26.4375
427,0.033476,0.02152,9.958987,0.005321,-0.002128,0.001064,26.5625
428,0.078907,0.014347,9.906382,0.003193,-0.003193,0.001064,26.5625
429,0.052604,0.007173,9.870516,-0.002128,-0.001064,0.002128,26.6875
430,-0.009564,0.011956,9.882471,0.003193,-0.004257,0.001064,26.1875
431,-0.009564,0.035867,9.865733,-0.002128,0.001064,0.005321,26.3125
432,0.004782,-0.002391,9.894427,0.004257,0,0.008514,26.5
433,0.007173,0.04304,9.839431,0.005321,0.004257,-0.002128,26.3125
434,0.004782,0.031084,9.85856,0.008514,0.001064,0.005321,26.6875
435,0.023911,0.023911,9.856169,-0.001064,0,0.003193,26.375
436,0.035867,0.009564,9.817911,0.006385,-0.004257,0.003193,26.4375
437,0.038258,0.011956,9.844213,0.002128,0.003193,0.005321,26.625
438,0.054996,0.026302,9.872907,0.006385,0,0,26.5625
439,0.059778,0.023911,9.872907,0.005321,-0.003193,0.004257,26.375
440,0.04304,0.050213,9.827476,0.003193,0.001064,-0.002128,26.5625
441,0.095645,-0.007173,9.88008,0.002128,-0.003193,0.004257,26.8125
442,0.028693,0.040649,9.918338,0.008514,-0.003193,0.005321,26.625
443,0.06456,0.014347,9.906382,0.004257,-0.004257,-0.003193,26.5625
444,0.028693,0.033476,9.892036,0.002128,-0.001064,0.001064,26.5
445,0.083689,-0.016738,9.872907,0.00745,-0.005321,0,26.5
446,0.06456,0.023911,9.870516,0.002128,-0.008514,0.001064,26.5
447,0.016738,0.014347,9.925511,0.001064,-0.001064,0.005321,26.625
448,0.02152,0.047822,9.915947,0.003193,-0.005321,0.004257,26.5625
449,0.004782,0.045431,9.930293,0.004257,-0.005321,-0.002128,26.625
450,0.019129,0.06456,9.844213,0.005321,-0.001064,0.003193,26.625
451,0.004782,0.047822,9.856169,0.005321,0,0.005321,26.625
452,-0.04304,0.026302,9.832258,0.002128,-0.005321,0,26.5
453,-0.016738,0.019129,9.784436,0.001064,0,0.005321,26.5625
454,0.047822,0.014347,9.829867,0.004257,-0.004257,0.001064,26.75
455,0.06456,0.011956,9.846604,0.003193,-0.001064,-0.001064,26.6875
456,0.035867,0.023911,9.839431,0.00745,-0.003193,0.004257,26.625
457,0.057387,0.031084,9.85856,0.00745,0.001064,0.001064,26.4375
458,0.047822,0.016738,9.841822,0.002128,0.005321,0.006385,26.6875
459,0.069342,0.007173,9.925511,0.010642,-0.002128,0.001064,26.5
460,0.054996,0.014347,9.889645,0.003193,-0.001064,0.004257,26.4375
461,0.112382,0.009564,9.884862,0.004257,-0.005321,0.002128,26.5
462,0.054996,0.014347,9.906382,0.006385,-0.001064,-0.005321,26.5625
463,0.011956,0.054996,9.887253,0.005321,-0.004257,-0.002128,26.5
464,0.016738,0.026302,9.889645,-0.002128,-0.002128,0.010642,26.4375
465,0.040649,0.026302,9.892036,0.004257,0.002128,0.001064,26.6875
466,-0.031084,0.016738,9.882471,0.001064,-0.003193,-0.001064,26.625
467,0.014347,0.045431,9.810738,0.001064,-0.001064,0.002128,26.5
468,0.016738,0.031084,9.794,-0.003193,-0.002128,0.001064,26.5625
469,0.047822,-0.02152,9.779653,0.006385,-0.004257,0,26.375
470,0.06456,0.016738,9.817911,0,-0.005321,-0.006385,26.5
471,0.031084,-0.014347,9.882471,0.003193,-0.005321,0.003193,26.625
472,0.050213,0.011956,9.913556,0.00745,-0.001064,0.002128,26.6875
473,0.083689,0.016738,9.88008,0.010642,0.001064,-0.001064,26.375
474,0.109991,0.047822,9.865733,0.00745,-0.006385,0.004257,26.6875
475,0.098036,0.057387,9.92312,0.00745,-0.00745,0.005321,26.625
476,0.040649,0.014347,9.92312,0.003193,0.006385,0.001064,26.375
477,0.071733,0.007173,9.892036,0.005321,0,0.004257,26.4375
478,0.033476,0.04304,9.863342,0.004257,0.002128,0,26.5
479,0.057387,0.007173,9.899209,0.004257,-0.002128,0.002128,26.5
480,0.071733,0.031084,9.915947,0.010642,-0.006385,0.00745,26.4375
481,0.093253,0.023911,9.9016,0,-0.006385,0.003193,26.375
482,0.066951,0.028693,9.9016,0.004257,-0.003193,0.009578,26.5
483,0.031084,0.014347,9.892036,0.005321,-0.001064,0,26.4375
484,0.019129,0.009564,9.860951,0,-0.004257,0.003193,26.5
485,-0.009564,0.026302,9.887253,0.008514,0.003193,0,26.5
486,0.009564,0.028693,9.870516,0.005321,0.001064,0.003193,26.625
487,0.002391,0.026302,9.925511,0.004257,0,0.004257,26.625
488,-0.002391,0.011956,9.856169,0,0.001064,-0.005321,26.4375
489,0.002391,0.031084,9.810738,-0.003193,0.001064,0.002128,26.5625
490,0.02152,0.06456,9.841822,0.002128,-0.001064,-0.001064,26.6875
491,0.019129,0.069342,9.786827,0.002128,0,0.001064,26.3125
492,0.007173,0.059778,9.846604,0.001064,-0.008514,0.004257,26.5
493,0.050213,0.023911,9.741396,0.002128,0,0.004257,26.625
494,0.054996,0.045431,9.808347,0.005321,-0.003193,-0.001064,26.5
495,0.057387,0.035867,9.796391,0,-0.003193,-0.002128,26.5625
496,0.066951,0.04304,9.892036,0.006385,-0.001064,-0.004257,26.4375
497,0.06456,0.009564,9.915947,0.006385,-0.001064,-0.001064,26.5625
498,0.047822,0.007173,9.856169,0.008514,-0.003193,-0.003193,26.5
499,0.076516,0.011956,9.88008,0.001064,-0.003193,-0.001064,26.5625
500,0.052604,0.040649,9.887253,0.00745,-0.003193,0.002128,26.4375
501,0.100427,0.009564,9.882471,0.010642,-0.005321,0.002128,26.5
502,0.057387,0.011956,9.911165,0.001064,0.002128,-0.001064,26.375
503,0.02152,0.033476,9.918338,0.005321,-0.006385,0.003193,26.5
504,0.007173,0.02152,9.9016,0.005321,-0.001064,0,26.75
505,0.007173,0.045431,9.9016,0.009578,-0.005321,0.001064,26.5
506,0.004782,0.045431,9.872907,0.006385,0.003193,0.003193,26.625
507,0.004782,0.050213,9.877689,0.003193,-0.002128,0.002128,26.625
508,0.002391,0.074125,9.777262,-0.001064,0.001064,0.003193,26.5
509,0.035867,-0.011956,9.813129,0,-0.002128,0.003193,26.625
510,0.009564,0.038258,9.825084,0.005321,-0.002128,0.004257,26.6875
511,0.035867,-0.019129,9.834649,0.004257,-0.004257,0.002128,26.5
512,0.047822,0.02152,9.829867,0.006385,-0.005321,0,26.1875
513,0.057387,0.031084,9.88008,0.003193,0,0.001064,26.375
514,0.098036,-0.009564,9.906382,0.002128,0.001064,-0.001064,26.4375
515,0.052604,0.007173,9.9016,0.010642,-0.001064,0.005321,26.625
516,0.074125,0.014347,9.848996,0.006385,-0.003193,0.001064,26.5
517,0.088471,0.014347,9.920729,0.001064,-0.002128,0.006385,26.5625
518,0.062169,0.026302,9.887253,0.001064,-0.00745,-0.002128,26.4375
519,0.052604,0.028693,9.896818,0.003193,-0.001064,0,26.375
520,0.014347,-0.004782,9.887253,0.001064,-0.006385,-0.001064,26.5
521,0.002391,0.045431,9.848996,-0.001064,-0.001064,0.005321,26.3125
522,-0.002391,0.071733,9.925511,0.005321,0.002128,-0.002128,26.625
523,-0.026302,0.052604,9.932685,0.00745,-0.004257,0.005321,26.5625
524,-0.007173,0.054996,9.83704,0.003193,-0.003193,-0.006385,26.5625
525,0.023911,0.026302,9.863342,0,-0.004257,-0.002128,26.6875
526,0.04304,0.019129,9.798782,0.002128,-0.005321,0.002128,26.4375
527,0.033476,0.040649,9.803564,-0.002128,-0.001064,0.006385,26.375
528,0.02152,0.002391,9.820302,-0.004257,0.002128,0.002128,26.625
529,0.088471,0.004782,9.863342,0.004257,-0.003193,-0.003193,26.625
530,0.093253,0.014347,9.911165,0.00745,-0.002128,0.003193,26.625
531,0.081298,-0.019129,9.88008,0.006385,-0.008514,0.003193,26.4375
532,0.059778,0.011956,9.877689,0.003193,-0.003193,-0.001064,26.625
533,0.059778,-0.009564,9.92312,0.006385,-0.005321,0.008514,26.5625
534,0.045431,0.038258,9.860951,0.001064,-0.005321,-0.002128,26.5
535,0.047822,0.028693,9.892036,0.003193,-0.009578,0.002128,26.5
536,0.033476,0.038258,9.903991,0.005321,-0.002128,0.002128,26.5
537,0.040649,0.052604,9.913556,-0.002128,0.001064,0.002128,26.5
538,0.009564,0.016738,9.88008,0.009578,-0.004257,0.001064,26.6875
539,-0.002391,0.028693,9.894427,0.002128,0.001064,0.003193,26.5
540,0.066951,0.050213,9.796391,0.004257,-0.003193,0.002128,26.6875
541,0.076516,0.04304,9.841822,0.002128,-0.005321,0.005321,26.625
542,0.040649,0.02152,9.779653,0.003193,0,-0.001064,26.6875
543,0.047822,0.011956,9.810738,0,0.001064,0.003193,26.4375
544,0.026302,0.04304,9.839431,0.003193,-0.004257,0.002128,26.625
545,0.069342,0,9.83704,0.008514,-0.00745,0.004257,26.375
546,0.04304,0.019129,9.882471,0.00745,-0.001064,0.002128,26.375
547,0.078907,0.019129,9.887253,0.005321,0.003193,0.005321,26.6875
548,0.066951,0.050213,9.911165,0.008514,-0.002128,0.001064,26.6875
549,0.054996,0.014347,9.88008,0.008514,0,0.004257,26.625
550,0.011956,0.009564,9.853778,0.005321,-0.003193,0.002128,26.5625
551,0.009564,0.004782,9.884862,0.002128,-0.002128,0.002128,26.5
552,0.059778,0.019129,9.903991,0.002128,-0.002128,0.00745,26.5
553,0.007173,0.040649,9.896818,0.001064,-0.002128,0.005321,26.5625
554,-0.004782,0.023911,9.889645,0.002128,0,0.004257,26.4375
555,-0.014347,0.033476,9.932685,0.003193,-0.006385,0,26.4375
556,0.011956,0.028693,9.882471,0,0.002128,0.002128,26.375
557,0.02152,0.04304,9.805956,-0.001064,-0.001064,0.005321,26.4375
558,-0.002391,0.007173,9.844213,0.005321,-0.001064,0.006385,26.5
559,0.014347,0.06456,9.779653,0.005321,-0.001064,-0.001064,26.5
560,0.031084,0.045431,9.813129,0.002128,0.003193,0.002128,26.625
561,0.047822,0.019129,9.851387,0.004257,-0.004257,0.001064,26.5
562,0.069342,0.028693,9.882471,0.003193,-0.004257,0.004257,26.625
563,0.033476,0.016738,9.856169,0.001064,-0.003193,0.006385,26.4375
564,0.069342,-0.026302,9.882471,0.006385,-0.003193,0.006385,26.25
565,0.076516,0.040649,9.915947,0.006385,0,-0.004257,26.8125
566,0.062169,0.016738,9.848996,0.006385,-0.005321,0.00745,26.375
567,0.06456,0.004782,9.877689,0.004257,-0.005321,0.004257,26.4375
568,0.045431,0.007173,9.9016,0.005321,-0.003193,0.003193,26.4375
569,0.026302,-0.009564,9.911165,0.00745,-0.00745,-0.002128,26.375
570,-0.033476,0.014347,9.894427,0.001064,-0.001064,0.005321,26.6875
571,-0.045431,0.040649,9.915947,-0.001064,0.003193,0.003193,26.5625
572,0.016738,0.083689,9.853778,0.001064,0,0.004257,26.5
573,0.011956,0.02152,9.817911,0.001064,0,0.002128,26.5
574,0.004782,0.040649,9.829867,0.005321,-0.002128,0,26.3125
575,0.045431,0.009564,9.789218,0.005321,-0.004257,0,26.375
576,0.007173,0.014347,9.829867,0.002128,0,-0.001064,26.5625
577,0.045431,0.02152,9.829867,0.002128,-0.004257,-0.003193,26.625
578,0.08608,0.016738,9.817911,0.004257,-0.003193,0.002128,26.5
579,0.076516,0.02152,9.860951,0.005321,-0.002128,0,26.5625
580,0.057387,0.047822,9.870516,0.006385,-0.001064,0,26.5625
581,0.028693,0.028693,9.906382,0.005321,-0.005321,0.004257,26.6875
582,0.071733,0.009564,9.882471,0.001064,-0.004257,0.001064,26.4375
583,0.076516,-0.002391,9.920729,0.001064,-0.006385,-0.002128,26.4375
584,0.02152,0.009564,9.856169,0.006385,-0.005321,-0.001064,27
585,0.014347,0.026302,9.937467,0.006385,-0.004257,-0.002128,26.375
586,0.002391,-0.011956,9.875298,0.00745,-0.004257,0.001064,26.5
587,-0.004782,0.04304,9.903991,0.002128,0,0,26.4375
588,0.031084,0.031084,9.841822,0,-0.005321,0,26.5625
589,0.033476,0.023911,9.829867,0.003193,-0.004257,0.004257,26.5625
590,0.023911,0.023911,9.829867,0.005321,-0.004257,0.005321,26.5
591,0.038258,0.033476,9.829867,-0.001064,0,0,26.625
592,0.040649,0.040649,9.827476,0.002128,-0.003193,-0.004257,26.5
593,-0.016738,-0.009564,9.796391,0.006385,-0.004257,0.001064,26.8125
594,0.033476,-0.028693,9.848996,0.003193,-0.005321,0.001064,26.3125
595,0.040649,-0.023911,9.832258,0.002128,0.002128,0.005321,26.6875
596,0.062169,0.04304,9.884862,0.001064,0.001064,-0.003193,26.5625
597,0.023911,-0.02152,9.834649,0.002128,-0.001064,0.00745,26.375
598,0.052604,-0.016738,9.899209,0.003193,0.002128,0.00745,26.4375
599,0.04304,0.009564,9.860951,0.001064,0.001064,0.001064,26.5
600,0.095645,0.078907,9.915947,0.004257,-0.009578,0.001064,26.3125
601,0.066951,-0.007173,9.887253,0,-0.00745,-0.001064,26.5
602,0.052604,0.06456,9.887253,0.005321,0.001064,0.001064,26.375
603,0.038258,0.019129,9.877689,0.003193,-0.004257,-0.002128,26.3125
604,0.035867,0.014347,9.906382,0.003193,-0.011706,0.003193,26.5625
605,0.004782,0.02152,9.865733,0.002128,-0.003193,-0.003193,26.4375
606,0.026302,0.04304,9.930293,0.005321,-0.003193,-0.002128,26.5625
607,-0.035867,0.028693,9.882471,0.003193,-0.002128,0.001064,26.625
608,0.002391,0.054996,9.863342,0.003193,-0.001064,0.001064,26.5625
609,-0.009564,0.08608,9.942249,0.001064,0.001064,-0.002128,26.5
610,0.002391,0.050213,9.803564,0,-0.002128,0.003193,26.625
611,0.02152,0.014347,9.834649,0.003193,0.002128,0,26.625
612,0.019129,0.019129,9.81552,0.002128,-0.006385,-0.002128,26.625
613,0.100427,-0.002391,9.85856,-0.001064,0.002128,0.003193,26.625
614,0.028693,0.004782,9.877689,0.004257,-0.001064,0.006385,26.375
615,0.083689,0.02152,9.83704,0.006385,-0.003193,0.001064,26.5625
616,0.045431,0.002391,9.865733,0.004257,-0.002128,0.008514,26.6875
617,0.06456,0.019129,9.9016,0.008514,0,0.003193,26.625
618,0.090862,0.011956,9.927902,0.009578,0,-0.005321,26.5
619,0.04304,-0.002391,9.911165,0.008514,-0.005321,0.008514,26.625
620,0.074125,0.02152,9.860951,0.00745,-0.005321,0.002128,26.625
621,-0.007173,0.002391,9.896818,0.004257,0.001064,0.004257,26.6875
622,0.007173,0.035867,9.884862,0.002128,-0.00745,-0.002128,26.625
623,-0.033476,0.076516,9.896818,0.002128,-0.001064,0.002128,26.5
624,0.014347,0.035867,9.851387,0.003193,0,0.00745,26.6875
625,0.011956,0.033476,9.913556,0.00745,-0.004257,0.004257,26.375
626,0.038258,0.050213,9.860951,0.002128,-0.003193,0.003193,26.375
627,-0.009564,0.074125,9.875298,0,-0.001064,0.001064,26.5625
628,0.019129,0.009564,9.832258,0.004257,0.003193,0,26.4375
629,0.004782,0.019129,9.801173,0,0.002128,0,26.5
630,0.028693,0.011956,9.796391,0.002128,0,0.004257,26.625
631,0.057387,-0.014347,9.81552,0.003193,-0.00745,0,26.5
632,0.023911,0.002391,9.870516,0.004257,-0.004257,0.001064,26.4375
633,0.088471,0.014347,9.920729,0.006385,-0.001064,0.006385,26.6875
634,0.066951,-0.011956,9.839431,-0.001064,0.002128,0,26.4375
635,0.074125,0.007173,9.951813,0.00745,-0.002128,0.003193,26.625
636,0.066951,0.04304,9.894427,0.006385,-0.004257,0.002128,26.625
637,0.045431,-0.004782,9.918338,0.004257,-0.001064,-0.00745,26.6875
638,0.019129,-0.007173,9.889645,0.00745,-0.004257,-0.001064,26.625
639,-0.047822,0.011956,9.925511,0.001064,0,0.004257,26.4375
640,0.031084,0.009564,9.9016,0.003193,-0.002128,-0.002128,26.6875
641,-0.011956,0.052604,9.846604,0.001064,-0.006385,0.004257,26.375
642,0.011956,0.028693,9.801173,0,0.001064,-0.001064,26.625
643,0.028693,0.033476,9.825084,0.005321,-0.004257,-0.001064,26.5625
644,0.031084,-0.004782,9.798782,0.004257,-0.001064,0.003193,26.5
645,0.040649,0,9.81552,0.001064,-0.001064,0.008514,26.3125
646,0.071733,-0.023911,9.892036,0.005321,-0.001064,-0.002128,26.5
647,0.04304,0.031084,9.918338,0.003193,0.003193,0.003193,26.375
648,0.057387,-0.016738,9.829867,0.004257,-0.003193,-0.002128,26.3125
649,0.078907,0.007173,9.892036,0.005321,-0.004257,-0.003193,26.4375
650,0.066951,0.007173,9.875298,0.006385,-0.001064,0.002128,26.5625
651,0.062169,0.028693,9.9016,0.004257,-0.004257,-0.002128,26.625
652,0.002391,0.02152,9.942249,0.003193,-0.004257,-0.003193,26.6875
653,-0.019129,0.040649,9.918338,0.004257,-0.004257,0.001064,26.5
654,-0.02152,0.062169,9.925511,0.002128,-0.005321,0.002128,26.1875
655,0.002391,0.069342,9.803564,0,-0.004257,0.001064,26.3125
656,0.016738,0.045431,9.829867,0.004257,-0.001064,0.003193,26.625
657,-0.031084,0,9.777262,-0.001064,-0.003193,0.006385,26.8125
658,0.031084,-0.026302,9.782044,0.002128,0,0.002128,26.5
659,0.040649,0.028693,9.844213,0.004257,-0.004257,0.003193,26.625
660,0.050213,0.002391,9.860951,-0.001064,-0.002128,-0.001064,26.5625
661,0.081298,-0.007173,9.908773,0.009578,-0.003193,0.004257,26.3125
662,0.059778,0.014347,9.860951,0.008514,0,0.006385,26.375
663,0.100427,-0.004782,9.927902,-0.001064,0.004257,-0.001064,26.5
664,0.078907,0.02152,9.88008,0.003193,-0.002128,0.004257,26.375
665,0.054996,0.014347,9.894427,0.005321,-0.005321,0.004257,26.4375
666,0.050213,0.052604,9.829867,0.00745,-0.00745,0,26.3125
667,0.059778,0.035867,9.887253,0.003193,-0.002128,0.004257,26.5625
668,0.02152,0.02152,9.951813,0.001064,0,0.006385,26.5625
669,-0.002391,0.031084,9.939858,0.003193,-0.003193,0.004257,26.5
670,0.014347,0.047822,9.920729,0.003193,-0.006385,0,26.6875
671,-0.016738,0.026302,9.892036,0.001064,0.001064,0.003193,26.5
672,0.011956,0.062169,9.875298,-0.001064,-0.002128,0,26.5
673,0.014347,0.035867,9.884862,0.004257,-0.002128,0.008514,26.8125
674,0.02152,0.033476,9.832258,-0.002128,-0.002128,0.001064,26.625
675,0.062169,0.040649,9.825084,0,-0.005321,0.003193,26.75
676,0.033476,0.016738,9.794,0.004257,-0.002128,0.004257,26.5
677,0.033476,0.009564,9.83704,-0.002128,-0.003193,0,26.625
678,0.016738,0.011956,9.810738,0.002128,-0.003193,0.001064,26.4375
679,0.02152,-0.02152,9.846604,-0.002128,-0.002128,0.004257,26.375
680,0.06456,-0.019129,9.829867,0.004257,-0.002128,0.002128,26.5
681,0.028693,0.002391,9.870516,0.008514,0.003193,0,26.6875
682,0.1076,-0.011956,9.951813,0.004257,-0.003193,0.002128,26.5625
683,0.083689,0.004782,9.892036,0.010642,0.001064,0.001064,26.625
684,0.074125,0.038258,9.913556,0.004257,-0.005321,-0.001064,26.4375
685,0.026302,0.009564,9.939858,0,-0.00745,0.004257,26.625
686,0.076516,0.054996,9.949422,0.003193,-0.002128,-0.005321,26.3125
687,0.035867,-0.016738,9.889645,0.004257,-0.003193,0.002128,26.4375
688,0.019129,0.019129,9.911165,0.004257,-0.004257,0.002128,26.5625
689,0.052604,0,9.877689,0.00745,-0.008514,0.003193,26.5625
690,0.033476,0.023911,9.906382,0.005321,-0.003193,0.006385,26.6875
691,-0.007173,-0.002391,9.915947,0.003193,-0.002128,0.005321,26.5
692,-0.004782,-0.011956,9.875298,0.002128,-0.005321,0.002128,26.375
693,-0.011956,0,9.925511,0.001064,-0.009578,0.001064,26.5625
694,-0.033476,0.031084,9.894427,0,0,0.002128,26.625
695,0.002391,-0.007173,9.88008,0.002128,-0.004257,0.001064,26.6875
696,-0.023911,0.038258,9.882471,0.00745,0.001064,0.005321,26.5625
697,-0.002391,0.040649,9.841822,0.004257,-0.004257,0,26.5
698,0.026302,0.038258,9.827476,0,-0.003193,0.002128,26.625
699,0.007173,0.040649,9.856169,0.001064,-0.003193,-0.001064,26.625
700,0.02152,0.023911,9.913556,0.003193,-0.005321,0.005321,26.5625
701,0.011956,0.045431,9.853778,0.001064,-0.005321,0.006385,26.3125
702,0.02152,0.016738,9.834649,0,-0.002128,-0.002128,26.6875
703,0.074125,0.038258,9.798782,-0.001064,-0.001064,0.004257,26.625
704,0.035867,0.033476,9.839431,0.006385,0,0.003193,26.4375
705,0.052604,0.009564,9.805956,-0.003193,-0.006385,0.005321,26.5625
706,0.031084,0.02152,9.834649,0.006385,0.002128,-0.001064,26.5
707,0.071733,-0.011956,9.88008,0.006385,-0.001064,0.006385,26.625
708,0.098036,-0.014347,9.829867,0.003193,0,0.002128,26.8125
709,0.074125,-0.023911,9.894427,0.005321,-0.003193,-0.002128,26.5
710,0.066951,0.007173,9.918338,0.002128,-0.005321,0.002128,26.5
711,0.050213,0.014347,9.865733,0.003193,-0.001064,-0.003193,26.6875
712,0.04304,0.035867,9.915947,0,-0.001064,0.004257,26.5625
713,0.02152,-0.019129,9.872907,0.002128,-0.006385,-0.002128,26.6875
714,-0.04304,0.040649,9.875298,0.003193,-0.003193,0.001064,26.5625
715,-0.011956,-0.009564,9.894427,0.003193,0.001064,0.004257,26.375
716,0.016738,0.023911,9.841822,0.004257,-0.001064,0.003193,26.5
717,0.019129,0.023911,9.817911,0.005321,-0.006385,0.005321,26.5
718,0.016738,0.007173,9.782044,0.005321,-0.002128,0.004257,26.625
719,0.031084,0.004782,9.791609,0.006385,-0.004257,0.006385,26.5
720,0.045431,0.007173,9.887253,0.005321,0,0,26.5
721,0.078907,-0.035867,9.927902,0.006385,-0.004257,-0.002128,26.5
722,0.069342,0,9.911165,0.003193,-0.002128,0.003193,26.625
723,0.035867,0.019129,9.829867,0.003193,0.001064,0.005321,26.3125
724,0.054996,0.019129,9.937467,0.006385,-0.005321,0.001064,26.5
725,0.009564,-0.004782,9.894427,0.008514,0,-0.001064,26.5625
726,0.038258,-0.009564,9.892036,0.00745,-0.001064,0.005321,26.625
727,0.026302,0.014347,9.9016,0.004257,-0.002128,-0.001064,26.625
728,0.009564,0.040649,9.918338,0.003193,-0.002128,0.003193,26.375
729,0.023911,0.038258,9.906382,0.004257,-0.003193,-0.001064,26.375
730,-0.007173,0.076516,9.877689,0,0.002128,-0.001064,26.6875
731,0.004782,0.035867,9.844213,0.005321,-0.005321,-0.003193,26.6875
732,0.023911,-0.002391,9.81552,0.001064,0,0.004257,26.625
733,0.028693,0,9.789218,0.002128,-0.002128,0.002128,26.5625
734,0.004782,0.009564,9.856169,0.003193,-0.004257,-0.003193,26.375
735,0.04304,0.023911,9.851387,0.002128,0,-0.001064,26.375
736,0.081298,0.011956,9.844213,0.005321,-0.002128,0.003193,26.5625
737,0.083689,0.02152,9.918338,0.009578,0.002128,0,26.5
738,0.098036,0.011956,9.872907,0.006385,-0.002128,0.003193,26.5
739,0.06456,0.007173,9.937467,0.003193,0.001064,0,26.3125
740,0.031084,0.02152,9.908773,0.006385,-0.00745,-0.001064,26.5625
741,0.028693,-0.004782,9.85856,0.005321,-0.004257,0.004257,26.375
742,0.040649,0.026302,9.903991,0.002128,-0.004257,0,26.4375
743,-0.019129,0.026302,9.9016,0.003193,-0.001064,0.006385,26.6875
744,-0.028693,-0.009564,9.915947,0.003193,-0.004257,0.00745,26.5
745,-0.031084,0.023911,9.865733,0.005321,0.001064,0.002128,26.375
746,0.019129,0.028693,9.805956,0.001064,-0.005321,0.003193,26.5
747,0.028693,0.023911,9.844213,0.001064,0.001064,0.001064,26.625
748,0.031084,0.002391,9.856169,0.002128,-0.001064,0.00745,26.4375
749,0.052604,-0.007173,9.860951,0.003193,-0.001064,0.008514,26.4375
750,0.057387,0.007173,9.887253,0.001064,0,0.010642,26.5
751,0.090862,0.047822,9.892036,0.005321,0.001064,0,26.6875
752,0.059778,0.033476,9.877689,0.009578,-0.010642,0.003193,26.625
753,0.093253,0.011956,9.848996,0.001064,-0.001064,0,26.5
754,0.08608,-0.007173,9.918338,0.00745,-0.002128,0.005321,26.5625
755,0.066951,-0.011956,9.789218,0.001064,-0.00745,-0.001064,26.1875
756,0.026302,0.023911,9.894427,0.005321,-0.005321,0.00745,26.375
757,0.019129,0.009564,9.920729,0.006385,-0.005321,0.006385,26.5625
758,-0.004782,0.019129,9.875298,0.004257,-0.001064,0.00745,26.5
759,-0.007173,0.035867,9.83704,-0.002128,-0.005321,0.002128,26.375
760,-0.016738,0.035867,9.853778,-0.005321,-0.002128,0.00745,26.4375
761,-0.019129,0.019129,9.841822,0.001064,0.002128,0.004257,26.6875
762,0.026302,-0.007173,9.81552,0.001064,-0.001064,-0.003193,26.5
763,0.045431,0.038258,9.794,0.006385,-0.001064,0.002128,26.3125
764,0.02152,-0.009564,9.829867,0.005321,0,0.003193,26.5625
765,0.009564,0.026302,9.882471,0.005321,-0.003193,-0.002128,26.625
766,0.054996,0.023911,9.822693,0.001064,0.001064,0.004257,26.625
767,0.062169,0.011956,9.903991,0.004257,-0.002128,-0.002128,26.4375
768,0.057387,-0.011956,9.877689,0.005321,0.001064,0.002128,26.625
769,0.105209,-0.014347,9.918338,0.001064,0.001064,0.003193,26.625
770,0.088471,-0.014347,9.894427,0.003193,0.001064,0.003193,26.6875
771,0.08608,0.019129,9.884862,0.005321,-0.008514,0,26.5
772,0.059778,-0.007173,9.88008,0.005321,-0.00745,0.002128,26.4375
773,-0.016738,-0.004782,9.906382,0.005321,0.002128,-0.002128,26.6875
774,0.007173,0,9.903991,0.008514,-0.002128,0.003193,26.8125
775,0.009564,0.023911,9.865733,0.002128,-0.00745,0.003193,26.4375
776,0.014347,0.016738,9.913556,0.004257,-0.005321,-0.002128,26.4375
777,0.074125,0.028693,9.903991,0.001064,-0.001064,0.003193,26.625
778,0.057387,-0.011956,9.863342,0.003193,-0.002128,0,26.5625
779,0.026302,0.045431,9.892036,0.002128,-0.001064,0.002128,26.625
780,0.002391,0.052604,9.896818,0.00745,-0.004257,-0.003193,26.3125
781,-0.014347,0.02152,9.892036,0.003193,-0.00745,0.00745,26.6875
782,0,-0.002391,9.9016,0.00745,-0.003193,0.00745,26.625
783,0.031084,0.02152,9.860951,0.006385,0.002128,0.004257,26.5625
784,0.009564,0.023911,9.920729,0.00745,-0.002128,0.005321,26.375
785,0.040649,0.023911,9.925511,0.005321,-0.001064,-0.002128,26.6875
786,0.028693,0.028693,9.887253,0.001064,0,0.001064,26.5625
787,0.031084,-0.014347,9.9016,0.004257,-0.004257,0.00745,26.625
788,0.014347,0.011956,9.882471,0.006385,0.001064,0.011706,26.6875
789,-0.026302,0.014347,9.846604,0.003193,-0.001064,0.003193,26.5625
790,0.004782,-0.004782,9.949422,0.002128,-0.001064,0.002128,26.5625
791,0.009564,0.040649,9.827476,0.003193,0,0.004257,26.4375
792,-0.035867,0.06456,9.935076,0.005321,0.002128,-0.002128,26.5
793,0.002391,0.054996,9.827476,0.00745,-0.004257,0.001064,26.4375
794,0.019129,0.062169,9.899209,0.004257,-0.002128,0.006385,26.5625
795,-0.007173,0.059778,9.865733,-0.001064,-0.006385,0.006385,26.5625
796,0.04304,0.04304,9.808347,0,0.001064,0.003193,26.5625
797,0,0.028693,9.817911,0.002128,-0.002128,0.00745,26.5625
798,-0.009564,0.038258,9.796391,0.004257,-0.004257,0.002128,26.375
799,0.009564,0.004782,9.865733,0.003193,-0.005321,0.004257,26.5
800,0.062169,-0.02152,9.853778,0.001064,0.006385,0.00745,26.625
801,0.054996,0.009564,9.88008,0.004257,-0.003193,0.006385,26.4375
802,0.08608,0.057387,9.894427,0.002128,0,0,26.5
803,0.093253,-0.028693,9.865733,0.005321,0.002128,0,26.375
804,0.066951,-0.004782,9.870516,0.003193,-0.003193,0.00745,26.5
805,0.06456,-0.019129,9.856169,0.004257,-0.002128,0.005321,26.4375
806,0.031084,-0.007173,9.930293,0.002128,-0.001064,-0.001064,26.6875
807,0.069342,0.002391,9.875298,0.003193,0.003193,0.005321,26.4375
808,0.095645,0.002391,9.915947,0.00745,-0.005321,0.004257,26.5
809,0.045431,0.023911,9.903991,0.005321,0.001064,0.001064,26.5
810,0.047822,-0.011956,9.918338,0.004257,-0.004257,0.002128,26.4375
811,0.040649,-0.007173,9.958987,0.00745,-0.002128,0.002128,26.375
812,-0.014347,0.016738,9.88008,0.002128,0.001064,0,26.8125
813,0.007173,0.023911,9.911165,0.004257,-0.001064,0.001064,26.5625
814,-0.031084,0.035867,9.915947,0.003193,-0.003193,0,26.5
815,0.004782,0.004782,9.913556,0.004257,-0.004257,0.003193,26.375
816,0.004782,-0.002391,9.889645,0,0.002128,0.006385,26.5
817,-0.035867,0.076516,9.827476,0.002128,-0.002128,0.003193,26.4375
818,0.038258,0.06456,9.882471,0.001064,0.002128,0.001064,26.6875
819,0.038258,0.033476,9.779653,0.001064,0,0.003193,26.5
820,-0.031084,0.011956,9.810738,-0.001064,0,0.004257,26.4375
821,0.04304,0.023911,9.81552,0,-0.003193,0.006385,26.6875
822,0.057387,0.009564,9.872907,0.001064,0,0.003193,26.5
823,0.04304,-0.007173,9.899209,0.00745,0.002128,0.001064,26.6875
824,0.098036,-0.002391,9.853778,0.009578,0.004257,0.001064,26.5625
825,0.076516,-0.002391,9.892036,0.002128,-0.006385,0.002128,26.4375
826,0.069342,0.011956,9.958987,0.006385,0,0.008514,26.4375
827,0.050213,0.002391,9.896818,0.003193,0.001064,0.00745,26.5
828,0.102818,-0.035867,9.877689,0.003193,-0.004257,0.003193,26.4375
829,0.031084,0.026302,9.829867,0.003193,-0.003193,0.00745,26.625
830,0.014347,0.033476,9.896818,0.006385,-0.002128,-0.002128,26.5625
831,0.02152,0.071733,9.892036,0.002128,-0.001064,0.003193,26.625
832,0.016738,0.054996,9.882471,0.004257,-0.001064,0.003193,26.5
833,0.007173,0.040649,9.877689,0.004257,0,0.005321,26.375
834,0.007173,0.019129,9.844213,0.006385,-0.006385,-0.003193,26.6875
835,0.004782,0.038258,9.892036,0.003193,-0.006385,0,26.5625
836,0.031084,0.023911,9.798782,0.004257,-0.003193,0.006385,26.5
837,0.023911,0.026302,9.83704,0.005321,-0.004257,-0.001064,26.625
838,0.088471,0.023911,9.820302,-0.003193,-0.004257,0.001064,26.3125
839,0.033476,-0.011956,9.848996,0.00745,-0.002128,-0.003193,26.375
840,0.078907,0.023911,9.844213,0.00745,-0.004257,0.004257,26.5625
841,0.098036,0.026302,9.856169,0.004257,-0.003193,0,26.4375
842,0.050213,-0.011956,9.954205,0.004257,0.002128,0.002128,26.5625
843,0.071733,0.031084,9.829867,0.00745,-0.002128,-0.002128,26.5
844,0.016738,0.02152,9.85856,0.003193,-0.002128,0,26.5625
845,-0.016738,-0.011956,9.918338,0.00745,-0.005321,0.001064,26.5
846,-0.023911,0.023911,9.949422,0.008514,-0.004257,0.002128,26.6875
847,0.009564,0.040649,9.908773,0.002128,0.003193,-0.004257,26.6875
848,-0.011956,0.038258,9.832258,0.001064,0.001064,0.008514,26.625
849,0.035867,0.023911,9.877689,0.004257,0.001064,0.005321,26.5
850,0,0.019129,9.848996,0.003193,0,0,26.5
851,0.045431,0.007173,9.834649,-0.001064,-0.002128,-0.003193,26.5
852,0.054996,0.002391,9.88008,0,-0.002128,-0.002128,26.375
853,0.033476,0.04304,9.884862,0.00745,0.004257,0.004257,26.375
854,0.076516,-0.007173,9.892036,0.004257,0.005321,0.003193,26.5
855,0.062169,0.019129,9.899209,0.005321,-0.003193,0.00745,26.625
856,0.1076,0.045431,9.911165,0.005321,-0.002128,0,26.5625
857,0.033476,-0.004782,9.9016,0.006385,-0.003193,0.005321,26.375
858,0.035867,0.019129,9.899209,0.001064,0.003193,-0.001064,26.625
859,0.062169,0,9.88008,0.004257,-0.002128,0.004257,26.5
860,0.016738,0.007173,9.947031,0.005321,-0.00745,0,26.625
861,-0.028693,-0.007173,9.860951,0.004257,0.001064,0,26.3125
862,0.026302,0.054996,9.892036,0.003193,-0.004257,0,26.5
863,-0.004782,0.035867,9.882471,0.006385,-0.005321,0.001064,26.625
864,-0.016738,0.016738,9.841822,0.006385,-0.003193,0.006385,26.5625
865,0.04304,0.019129,9.813129,0.003193,0.001064,0.005321,26.625
866,0.007173,0.040649,9.810738,0.005321,-0.003193,-0.002128,26.75
867,0.026302,-0.002391,9.827476,0.002128,0.003193,0.003193,26.625
868,-0.002391,0.014347,9.870516,0,-0.003193,-0.004257,26.5625
869,0.100427,-0.002391,9.85856,-0.001064,-0.002128,0,26.5625
870,0.093253,0.038258,9.865733,0.003193,-0.002128,0.005321,26.4375
871,0.105209,0.059778,9.856169,0.00745,-0.003193,-0.003193,26.5
872,0.054996,0.040649,9.875298,0.002128,0.002128,0.006385,26.5625
873,0.083689,-0.007173,9.92312,0.009578,-0.006385,0,26.5
874,0.081298,-0.023911,9.908773,0.005321,0,0.002128,26.5625
875,0.088471,0.038258,9.925511,0.006385,0.002128,-0.001064,26.5625
876,0.066951,-0.009564,9.868125,-0.002128,-0.004257,0.001064,26.5
877,0.040649,0.023911,9.870516,0.001064,-0.006385,-0.010642,26.6875
878,0.026302,0.009564,9.870516,0,-0.005321,-0.001064,26.75
879,0.011956,-0.014347,9.92312,0.006385,-0.001064,0.006385,26.625
880,0.028693,0.040649,9.911165,-0.002128,-0.002128,-0.003193,26.625
881,0.026302,-0.02152,9.908773,0.009578,0.001064,0.004257,26.5
882,-0.004782,0.016738,9.853778,0.003193,-0.004257,0.003193,26.75
883,0.028693,0.04304,9.911165,0.003193,-0.006385,0.002128,26.125
884,0.007173,0.04304,9.872907,0.002128,-0.003193,0.004257,26.625
885,-0.016738,0.023911,9.92312,0.001064,-0.003193,-0.001064,26.3125
886,0.040649,0.023911,9.892036,0.002128,-0.002128,-0.002128,26.6875
887,0.019129,0.038258,9.92312,0.00745,-0.008514,-0.003193,26.3125
888,0.011956,-0.011956,9.889645,0.002128,-0.006385,0.003193,26.3125
889,0.031084,0.057387,9.848996,0.009578,-0.006385,-0.004257,26.3125
890,0.023911,-0.002391,9.863342,0.005321,-0.003193,-0.005321,26.625
891,0.004782,-0.009564,9.808347,0.002128,0,0,26.5625
892,0.002391,-0.002391,9.892036,0.005321,-0.00745,0.005321,26.5
893,0.04304,0.026302,9.83704,-0.002128,-0.006385,0.002128,26.5
894,0.088471,0.057387,9.805956,0.011706,-0.001064,-0.001064,26.6875
895,0.105209,0.009564,9.856169,0.003193,0.002128,-0.002128,26.4375
896,0.031084,0.016738,9.903991,0.005321,0.001064,0.001064,26.6875
897,0.081298,0.016738,9.930293,0.006385,0.001064,0.010642,26.625
898,0.057387,0.047822,9.851387,0.005321,0.002128,-0.003193,26.375
899,0.090862,-0.019129,9.927902,0.00745,0.005321,0.005321,26.625
900,0.040649,0.009564,9.908773,0.010642,-0.004257,0.004257,26.5
901,0.121947,0.009564,9.791609,-0.001064,-0.001064,0.002128,26.625
902,0.06456,-0.016738,9.927902,0.002128,-0.005321,0.005321,26.5625
903,0.08608,0.040649,9.884862,-0.002128,-0.001064,0.00745,26.625
904,0.074125,0.026302,9.860951,0.010642,-0.011706,0.004257,26.625
905,0.035867,0.007173,9.9016,0.004257,-0.005321,0.009578,26.4375
906,0.016738,0.004782,9.913556,0.00745,0,0.002128,26.375
907,-0.004782,0.014347,9.875298,0.006385,0.001064,0.002128,26.5
908,-0.004782,0.02152,9.846604,0,0,-0.001064,26.5
909,0.004782,-0.004782,9.875298,0.004257,-0.002128,0.004257,26.625
910,0.028693,0.016738,9.875298,0,-0.00745,0.001064,26.5
911,0.007173,0.019129,9.834649,0.010642,-0.002128,0.008514,26.5
912,0.019129,0.014347,9.853778,0.003193,-0.001064,-0.003193,26.625
913,0.050213,0,9.853778,0.003193,-0.002128,0.001064,26.5
914,0.047822,-0.002391,9.870516,0,0.005321,0,26.5
915,0.059778,-0.038258,9.820302,0.009578,-0.005321,0.004257,26.5
916,0.054996,0.033476,9.882471,0.002128,0,0.004257,26.5
917,0.047822,0.02152,9.88008,0.006385,0.001064,0.001064,26.5
918,0.078907,0.009564,9.887253,0.009578,0,-0.001064,26.625
919,0.062169,-0.014347,9.844213,0.003193,-0.005321,0.002128,26.4375
920,0.050213,-0.007173,9.906382,0.004257,-0.006385,-0.004257,26.625
921,0.062169,0,9.887253,0.001064,-0.008514,0.001064,26.3125
922,0.019129,0.004782,9.908773,0.002128,-0.008514,0.001064,26.5625
923,-0.033476,0.066951,9.877689,-0.001064,-0.001064,0.001064,26.5625
924,-0.011956,0.035867,9.9016,0.001064,-0.001064,-0.001064,26.5625
925,-0.016738,-0.009564,9.875298,0.001064,0.001064,0.002128,26.6875
926,-0.040649,0.019129,9.829867,0,-0.004257,-0.003193,26.5
927,0.002391,0.040649,9.848996,0.001064,-0.001064,0.001064,26.5
928,0.028693,0.019129,9.860951,0.002128,0.003193,0.002128,26.6875
929,0.011956,0.040649,9.908773,0.009578,0.003193,0.004257,26.625
930,-0.011956,0.045431,9.865733,0.005321,-0.002128,0.00745,26.4375
931,0.011956,0.009564,9.844213,0.001064,-0.003193,0.004257,26.5625
932,-0.011956,0.019129,9.865733,0.004257,-0.002128,0.001064,26.5
933,-0.016738,0.014347,9.856169,0.002128,-0.002128,0,26.625
934,0.033476,0.011956,9.856169,-0.002128,-0.004257,0.006385,26.5
935,-0.02152,-0.014347,9.832258,0.003193,0,-0.004257,26.4375
936,0.031084,0.023911,9.832258,0.002128,0.003193,0.001064,26.6875
937,0.057387,0.016738,9.827476,0.002128,-0.004257,0.00745,26.4375
938,0.062169,0.016738,9.877689,0.004257,-0.004257,0.002128,26.6875
939,0.066951,-0.02152,9.865733,0.011706,-0.004257,-0.001064,26.375
940,0.04304,0.023911,9.877689,0.005321,-0.006385,0,26.5625
941,0.062169,0.033476,9.88008,0.00745,-0.001064,0.002128,26.625
942,0.062169,0.014347,9.865733,0.00745,-0.001064,-0.004257,26.5625
943,0.090862,-0.004782,9.925511,0.003193,-0.003193,0.008514,26.5
944,0.04304,-0.002391,9.85856,0.005321,-0.002128,-0.001064,26.6875
945,0.093253,0.033476,9.908773,-0.001064,0,-0.001064,26.625
946,0.04304,0.023911,9.906382,0.008514,-0.002128,-0.001064,26.6875
947,0.059778,-0.016738,9.896818,0.009578,0.001064,-0.003193,26.4375
948,-0.02152,0.02152,9.884862,0.005321,-0.004257,-0.001064,26.4375
949,-0.035867,0,9.908773,0.006385,-0.002128,0.009578,26.625
950,-0.011956,0.052604,9.88008,0,0,0.003193,26.5
951,0.040649,0.023911,9.808347,-0.001064,0.002128,0.006385,26.5
952,0.02152,0.04304,9.784436,0.004257,-0.003193,-0.001064,26.4375
953,0.062169,-0.007173,9.829867,0.002128,-0.001064,0.003193,26.6875
954,0.04304,-0.002391,9.899209,0.001064,-0.001064,0.002128,26.5625
955,0.057387,0.023911,9.803564,0.003193,-0.002128,0.004257,26.5
956,0.081298,0,9.884862,0.001064,-0.004257,0.004257,26.375
957,0.071733,0.059778,9.906382,0.004257,-0.006385,-0.004257,26.5
958,0.04304,-0.016738,9.853778,0.009578,-0.003193,-0.001064,26.375
959,0.023911,0.031084,9.872907,0.006385,-0.003193,0.004257,26.5625
960,0.031084,0.009564,9.9016,0.001064,-0.002128,0.004257,26.375
961,-0.004782,0.009564,9.930293,0.006385,-0.004257,0.001064,26.5
962,0.062169,0.028693,9.903991,0.008514,-0.002128,0.005321,26.5625
963,0.019129,0.028693,9.92312,0,-0.003193,-0.002128,26.625
964,0.004782,0.016738,9.932685,0.009578,-0.003193,-0.003193,26.375
965,0.033476,0.023911,9.896818,0.008514,-0.006385,0.002128,26.5625
966,0.038258,0.035867,9.896818,0,0,-0.002128,26.625
967,0.004782,0.040649,9.892036,0.001064,-0.002128,0.005321,26.375
968,0.011956,0.050213,9.848996,0.008514,0.001064,0.006385,26.4375
969,-0.014347,0.040649,9.911165,0.003193,-0.002128,0.005321,26.6875
970,-0.002391,0.023911,9.865733,0.002128,-0.003193,0.003193,26.5
971,-0.06456,0.038258,9.860951,0,0,0.005321,26.375
972,0,0.033476,9.851387,0.001064,-0.006385,0.004257,26.4375
973,0.019129,0.014347,9.813129,0.003193,-0.001064,0.00745,26.5625
974,0.026302,0.040649,9.825084,0.006385,-0.004257,0.001064,26.5625
975,0.076516,-0.016738,9.9016,0.004257,-0.00745,0.002128,26.625
976,0.076516,0.014347,9.872907,0.006385,-0.003193,0.004257,26.6875
977,0.105209,0.031084,9.884862,0.001064,0.001064,0.005321,26.6875
978,0.112382,0.031084,9.894427,0,-0.004257,-0.001064,26.4375
979,0.04304,0.031084,9.877689,0,-0.006385,0.006385,26.4375
980,0.078907,0.014347,9.884862,0.008514,0,0,26.5625
981,0.04304,-0.033476,9.906382,0.004257,-0.004257,0.00745,26.375
982,0.057387,0.038258,9.887253,0.004257,-0.002128,0.005321,26.375
983,0.011956,0.033476,9.899209,0.006385,-0.006385,0.006385,26.625
984,0.026302,0.050213,9.94464,-0.003193,-0.001064,0.002128,26.5625
985,0.038258,0.031084,9.851387,0.003193,-0.004257,0.003193,26.3125
986,-0.007173,0.035867,9.829867,0.001064,0,0,26.5
987,0.011956,0.019129,9.822693,0.001064,-0.00745,0.002128,26.625
988,0.007173,0.016738,9.827476,0.002128,-0.006385,0.004257,26.3125
989,0.026302,0.014347,9.798782,0.001064,-0.002128,-0.002128,26.4375
990,-0.002391,0.026302,9.791609,0.005321,-0.004257,0.002128,26.6875
991,0.066951,0.004782,9.9016,-0.002128,-0.002128,0.001064,26.625
992,0.090862,0.004782,9.870516,0.008514,0.001064,-0.002128,26.3125
993,0.081298,0.023911,9.868125,0.00745,0.002128,-0.00745,26.3125
994,0.083689,0.028693,9.865733,0.006385,0,0.001064,26.625
995,0.045431,-0.019129,9.884862,0.003193,-0.005321,0.005321,26.625
996,-0.011956,0.009564,9.887253,0.003193,0,-0.006385,26.625
997,0.007173,0.004782,9.896818,0,0.001064,-0.002128,26.625
998,-0.028693,0.035867,9.937467,0.003193,0.004257,0.004257,26.5625
999,-0.011956,0.04304,9.863342,0.005321,-0.002128,0.004257,26.6875
1000,0.04304,0.028693,9.856169,0,-0.002128,0.006385,26.625
